Unix_Timestamp,ISO_Time,Temp1_C,Temp2_C,Temp3_C,Temp4_C,Temp5_C,Accel_X,Accel_Y,Accel_Z,Gyro_X,Gyro_Y,Gyro_Z,Mag_X,Mag_Y,Mag_Z,BME_Pressure_hPa,BME_Humidity_pct,BME_Temp_C,Current_A,Power_W,Bus_Voltage_V,Is_UTC
1770538703,2026-02-08T00:18:23,3.6912708282470703,21.123180389404297,21.573789596557617,19.981678009033203,21.932748794555664,0.2060546875,0.362060546875,-0.861328125,-1.190185546875,2.044677734375,-0.06103515625,30.675399780273438,75.10184478759766,-122.63365936279297,21.26705551147461,994.8309936523438,38.23152160644531,0.0014024389982223511,0.0007317073345184327,11.999849999994039,1
1770538707,2026-02-08T00:18:27,3.448136806488037,21.109329223632812,21.587608337402344,19.983671188354492,21.94457244873047,0.20654296875,0.365234375,-0.857421875,-1.3427734375,2.25830078125,0.1220703125,31.909467697143555,74.92554473876953,-122.12409973144531,21.26705551147461,994.8309936523438,38.22568893432617,0.0013048779964447022,0.0012195122241973877,11.999870000004769,1
1770538707,2026-02-08T00:18:27,3.4829437732696533,21.09943389892578,21.55799674987793,19.971717834472656,21.94457244873047,0.207763671875,0.3583984375,-0.85546875,-1.03759765625,2.166748046875,0.1220703125,31.027992248535156,76.15961456298828,-122.63365936279297,21.272136688232422,994.7578735351562,38.23149490356445,0.0014024389982223511,0.0017073171138763427,11.999859999999403,1
1770538707,2026-02-08T00:18:27,3.43818736076355,21.109329223632812,21.569841384887695,19.983671188354492,21.916982650756836,0.20654296875,0.36083984375,-0.855712890625,-1.251220703125,2.13623046875,0.030517578125,32.26205825805664,76.33590698242188,-121.7844009399414,21.2772159576416,994.7931518554688,38.248966217041016,0.0014024389982223511,0.0017073171138763427,11.999859999999403,1
1770538707,2026-02-08T00:18:27,3.4157936573028564,21.10141372680664,21.58168601989746,19.96773338317871,21.94457244873047,0.208251953125,0.362060546875,-0.85302734375,-1.251220703125,2.288818359375,0.152587890625,32.79094696044922,75.10184478759766,-121.61454772949219,21.272136688232422,994.7578735351562,38.21399688720703,0.0015,0.0017073171138763427,11.999859999999403,1
1770538707,2026-02-08T00:18:27,3.4307239055633545,21.109329223632812,21.573789596557617,19.971717834472656,21.958364486694336,0.20556640625,0.3623046875,-0.85791015625,-1.312255859375,2.410888671875,0.244140625,29.79392433166504,75.98332214355469,-122.80351257324219,21.2772159576416,994.7118530273438,38.231468200683594,0.001597561001777649,0.0012195122241973877,11.999859999999403,1
1770538707,2026-02-08T00:18:27,3.5053069591522217,21.10141372680664,21.58168601989746,19.977693557739258,21.972156524658203,0.205078125,0.364013671875,-0.852783203125,-1.251220703125,2.166748046875,0.030517578125,32.26205825805664,75.98332214355469,-122.12409973144531,21.28229522705078,994.7471313476562,38.21977615356445,0.0014024389982223511,0.0017073171138763427,11.999859999999403,1
1770538707,2026-02-08T00:18:27,3.475487232208252,21.11922264099121,21.585634231567383,19.99960708618164,21.93471908569336,0.2060546875,0.359375,-0.857421875,-1.312255859375,2.197265625,0.030517578125,32.26205825805664,75.63072967529297,-123.48292541503906,21.28229522705078,994.774169921875,38.231441497802734,0.0015,0.0007317073345184327,11.999859999999403,1
1770538707,2026-02-08T00:18:27,3.477972984313965,21.125158309936523,21.565893173217773,19.98566246032715,21.962305068969727,0.20947265625,0.36083984375,-0.8525390625,-1.28173828125,1.953125,0.152587890625,31.027992248535156,75.80702209472656,-122.9733657836914,21.28229522705078,994.7200317382812,38.225608825683594,0.0014024389982223511,0.00048780488967895507,11.999870000004769,1
1770538707,2026-02-08T00:18:27,3.43818736076355,21.09943389892578,21.567867279052734,19.971717834472656,21.93077850341797,0.20458984375,0.36474609375,-0.85986328125,-1.3427734375,2.227783203125,-0.091552734375,32.26205825805664,76.33590698242188,-121.7844009399414,21.28229522705078,994.6929321289062,38.243106842041016,0.0013048779964447022,0.0012195122241973877,11.999840000003577,1
1770538708,2026-02-08T00:18:28,3.403348207473755,21.09349822998047,21.585634231567383,19.96773338317871,21.94851303100586,0.2041015625,0.3623046875,-0.85107421875,-1.40380859375,2.349853515625,0.0,30.851696014404297,75.98332214355469,-122.12409973144531,21.28229522705078,994.828369140625,38.237274169921875,0.0014024389982223511,0.0012195122241973877,11.999859999999403,1
1770538708,2026-02-08T00:18:28,3.356027126312256,21.09151840209961,21.55799674987793,19.973709106445312,21.928808212280273,0.205078125,0.3583984375,-0.854736328125,-1.617431640625,2.0751953125,0.030517578125,31.204286575317383,76.33590698242188,-121.7844009399414,21.28229522705078,994.7200317382812,38.20811080932617,0.0015,0.0017073171138763427,11.999859999999403,1
1770538708,2026-02-08T00:18:28,3.3610103130340576,21.08953857421875,21.55997085571289,19.95777130126953,21.92486572265625,0.2060546875,0.3623046875,-0.85546875,-1.3427734375,2.25830078125,-0.030517578125,32.08576202392578,75.80702209472656,-121.95425415039062,21.28229522705078,994.774169921875,38.231441497802734,0.0013048779964447022,0.0012195122241973877,11.999870000004769,1
1770538708,2026-02-08T00:18:28,3.363501787185669,21.10141372680664,21.55602264404297,19.955780029296875,21.926836013793945,0.209228515625,0.36572265625,-0.849853515625,-1.52587890625,2.3193359375,0.091552734375,31.909467697143555,75.98332214355469,-123.48292541503906,21.292455673217773,994.763427734375,38.20805740356445,0.0015,0.0012195122241973877,11.999870000004769,1
1770538708,2026-02-08T00:18:28,3.363501787185669,21.09943389892578,21.554048538208008,19.953786849975586,21.918954849243164,0.2080078125,0.365478515625,-0.8544921875,-1.40380859375,2.38037109375,-0.1220703125,31.733173370361328,75.80702209472656,-123.99248504638672,21.28229522705078,994.6929321289062,38.248939514160156,0.0015,0.0012195122241973877,11.999849999994039,1
1770538708,2026-02-08T00:18:28,3.4182822704315186,21.115264892578125,21.589582443237305,19.965740203857422,21.93471908569336,0.208984375,0.360595703125,-0.8525390625,-1.129150390625,2.105712890625,0.152587890625,31.027992248535156,75.45443725585938,-123.65277862548828,21.287376403808594,994.7552490234375,38.219749450683594,0.0014024389982223511,0.0017073171138763427,11.999859999999403,1
1770538708,2026-02-08T00:18:28,3.3734664916992188,21.09943389892578,21.567867279052734,19.965740203857422,21.926836013793945,0.209716796875,0.361328125,-0.85302734375,-1.312255859375,2.13623046875,0.030517578125,31.55687713623047,74.92554473876953,-121.7844009399414,21.28229522705078,994.7200317382812,38.21394348144531,0.0013048779964447022,0.0012195122241973877,11.999870000004769,1
1770538708,2026-02-08T00:18:28,3.3585188388824463,21.09349822998047,21.565893173217773,19.969724655151367,21.95639419555664,0.20458984375,0.364013671875,-0.858154296875,-1.495361328125,2.349853515625,0.091552734375,30.32280921936035,75.80702209472656,-122.9733657836914,21.28229522705078,994.7200317382812,38.237274169921875,0.0013048779964447022,0.0012195122241973877,11.999880000002682,1
1770538708,2026-02-08T00:18:28,3.308659791946411,21.10141372680664,21.563919067382812,19.965740203857422,21.950483322143555,0.20556640625,0.367431640625,-0.851806640625,-1.129150390625,2.166748046875,0.1220703125,31.733173370361328,75.80702209472656,-124.33219146728516,21.28229522705078,994.7471313476562,38.21977615356445,0.0013048779964447022,0.0012195122241973877,11.999859999999403,1
1770538708,2026-02-08T00:18:28,3.3360886573791504,21.09943389892578,21.55997085571289,19.965740203857422,21.954423904418945,0.20703125,0.359130859375,-0.861083984375,-1.251220703125,2.044677734375,0.152587890625,32.61465072631836,74.57295989990234,-121.7844009399414,21.287376403808594,994.7281494140625,38.20808410644531,0.0015,0.0012195122241973877,11.999870000004769,1
1770538709,2026-02-08T00:18:29,3.323622941970825,21.09943389892578,21.56194496154785,19.965740203857422,21.92092514038086,0.206298828125,0.36572265625,-0.854248046875,-1.312255859375,2.13623046875,0.091552734375,31.380582809448242,75.45443725585938,-123.31307220458984,21.28229522705078,994.80126953125,38.21977615356445,0.0013048779964447022,0.0012195122241973877,11.999859999999403,1
1770538709,2026-02-08T00:18:29,3.2787201404571533,21.095476150512695,21.567867279052734,19.971717834472656,21.93865966796875,0.20654296875,0.362548828125,-0.85400390625,-1.15966796875,2.105712890625,0.274658203125,31.733173370361328,75.10184478759766,-122.63365936279297,21.292455673217773,994.763427734375,38.213890075683594,0.0014024389982223511,0.0012195122241973877,11.999859999999403,1
1770538709,2026-02-08T00:18:29,3.323622941970825,21.09349822998047,21.565893173217773,19.963748931884766,21.93077850341797,0.20751953125,0.362060546875,-0.856201171875,-1.46484375,2.410888671875,-0.18310546875,33.14353561401367,74.39665985107422,-122.63365936279297,21.287376403808594,994.7281494140625,38.219749450683594,0.0014024389982223511,0.0012195122241973877,11.999859999999403,1
1770538709,2026-02-08T00:18:29,3.341073989868164,21.08953857421875,21.55799674987793,19.96773338317871,21.98200798034668,0.206298828125,0.359619140625,-0.85595703125,-1.251220703125,2.227783203125,-0.030517578125,32.08576202392578,76.51220703125,-122.29395294189453,21.292455673217773,994.763427734375,38.20222473144531,0.0014024389982223511,0.0012195122241973877,11.999870000004769,1
1770538709,2026-02-08T00:18:29,3.341073989868164,21.095476150512695,21.55799674987793,19.955780029296875,21.964275360107422,0.206787109375,0.362060546875,-0.859375,-1.220703125,1.983642578125,0.06103515625,29.79392433166504,74.92554473876953,-122.46380615234375,21.292455673217773,994.79052734375,38.219722747802734,0.0013048779964447022,0.0012195122241973877,11.999849999994039,1
1770538709,2026-02-08T00:18:29,3.3659932613372803,21.097455978393555,21.55602264404297,19.95777130126953,21.936689376831055,0.20947265625,0.361572265625,-0.849365234375,-1.190185546875,2.166748046875,-0.030517578125,30.675399780273438,76.86479949951172,-122.63365936279297,21.287376403808594,994.7823486328125,38.20808410644531,0.0014024389982223511,0.0012195122241973877,11.999870000004769,1
1770538709,2026-02-08T00:18:29,3.3610103130340576,21.103391647338867,21.56194496154785,19.95777130126953,21.94457244873047,0.20458984375,0.363525390625,-0.850341796875,-1.129150390625,2.349853515625,-0.091552734375,33.31983184814453,75.63072967529297,-123.48292541503906,21.302616119384766,994.7797241210938,38.20216751098633,0.0015,0.0012195122241973877,11.999859999999403,1
1770538709,2026-02-08T00:18:29,3.323622941970825,21.09943389892578,21.565893173217773,19.961755752563477,21.940629959106445,0.20361328125,0.364501953125,-0.8583984375,-1.46484375,1.983642578125,-0.1220703125,31.027992248535156,75.80702209472656,-123.65277862548828,21.297534942626953,994.7716064453125,38.219696044921875,0.0014024389982223511,0.0012195122241973877,11.999840000003577,1
1770538709,2026-02-08T00:18:29,3.3360886573791504,21.10141372680664,21.565893173217773,19.963748931884766,21.90515899658203,0.204833984375,0.365478515625,-0.85791015625,-1.373291015625,2.105712890625,-0.030517578125,32.79094696044922,75.10184478759766,-123.31307220458984,21.292455673217773,994.79052734375,38.20805740356445,0.0014024389982223511,0.0012195122241973877,11.999859999999403,1
1770538709,2026-02-08T00:18:29,3.3709754943847656,21.10141372680664,21.55997085571289,19.969724655151367,21.897275924682617,0.210205078125,0.36474609375,-0.85791015625,-1.28173828125,1.953125,-0.06103515625,31.380582809448242,76.15961456298828,-122.63365936279297,21.2772159576416,994.7389526367188,38.22563552856445,0.0014024389982223511,0.0012195122241973877,11.999859999999403,1
1770538710,2026-02-08T00:18:30,3.363501787185669,21.09943389892578,21.56194496154785,19.965740203857422,21.93471908569336,0.208251953125,0.357666015625,-0.8544921875,-1.03759765625,1.953125,0.1220703125,31.380582809448242,76.15961456298828,-123.31307220458984,21.297534942626953,994.7445068359375,38.225528717041016,0.0014024389982223511,0.0012195122241973877,11.999859999999403,1
1770538710,2026-02-08T00:18:30,3.3385813236236572,21.09943389892578,21.567867279052734,19.963748931884766,21.94260025024414,0.20361328125,0.363525390625,-0.85498046875,-1.251220703125,1.983642578125,0.091552734375,32.08576202392578,76.15961456298828,-122.63365936279297,21.292455673217773,994.763427734375,38.219722747802734,0.0014024389982223511,0.0012195122241973877,11.999859999999403,1
1770538710,2026-02-08T00:18:30,3.3311026096343994,21.097455978393555,21.573789596557617,19.977693557739258,21.922895431518555,0.206787109375,0.364501953125,-0.85546875,-1.46484375,2.44140625,-0.06103515625,32.96723937988281,75.27813720703125,-123.48292541503906,21.287376403808594,994.7552490234375,38.20808410644531,0.0014024389982223511,0.0012195122241973877,11.999870000004769,1
1770538710,2026-02-08T00:18:30,3.378448009490967,21.103391647338867,21.565893173217773,19.961755752563477,21.928808212280273,0.20751953125,0.3642578125,-0.858154296875,-1.373291015625,2.38037109375,0.030517578125,31.733173370361328,76.51220703125,-121.95425415039062,21.292455673217773,994.736328125,38.231388092041016,0.0014024389982223511,0.0017073171138763427,11.999849999994039,1
1770538710,2026-02-08T00:18:30,3.4506237506866455,21.09349822998047,21.569841384887695,19.96773338317871,21.94851303100586,0.20458984375,0.359130859375,-0.859619140625,-1.220703125,2.044677734375,0.06103515625,30.32280921936035,75.10184478759766,-122.29395294189453,21.287376403808594,994.7823486328125,38.21391677856445,0.0014024389982223511,0.0012195122241973877,11.999870000004769,1
1770538710,2026-02-08T00:18:30,3.3061656951904297,21.08953857421875,21.55799674987793,19.969724655151367,21.92092514038086,0.208251953125,0.363037109375,-0.85302734375,-1.556396484375,2.0751953125,0.06103515625,31.380582809448242,75.45443725585938,-123.31307220458984,21.297534942626953,994.7445068359375,38.19636535644531,0.0014024389982223511,0.0012195122241973877,11.999859999999403,1
1770538710,2026-02-08T00:18:30,3.3335957527160645,21.08953857421875,21.56194496154785,19.961755752563477,21.93077850341797,0.20849609375,0.362548828125,-0.85546875,-1.251220703125,2.044677734375,-0.091552734375,32.4383544921875,75.10184478759766,-122.63365936279297,21.297534942626953,994.7445068359375,38.219696044921875,0.0015,0.0012195122241973877,11.999859999999403,1
1770538710,2026-02-08T00:18:30,3.3585188388824463,21.08953857421875,21.567867279052734,19.961755752563477,21.928808212280273,0.210693359375,0.36474609375,-0.85400390625,-1.190185546875,2.288818359375,-0.030517578125,30.851696014404297,75.27813720703125,-122.80351257324219,21.302616119384766,994.8068237304688,38.20800018310547,0.0013048779964447022,0.0012195122241973877,11.999859999999403,1
1770538710,2026-02-08T00:18:30,3.3161420822143555,21.10141372680664,21.55602264404297,19.955780029296875,21.940629959106445,0.210205078125,0.363037109375,-0.853515625,-1.28173828125,2.0751953125,0.06103515625,30.851696014404297,75.63072967529297,-122.12409973144531,21.297534942626953,994.7716064453125,38.219696044921875,0.0013048779964447022,0.0012195122241973877,11.999840000003577,1
1770538710,2026-02-08T00:18:30,3.2887020111083984,21.09943389892578,21.563919067382812,19.95777130126953,21.922895431518555,0.208984375,0.359130859375,-0.856201171875,-1.28173828125,1.983642578125,0.18310546875,31.55687713623047,75.98332214355469,-123.14321899414062,21.292455673217773,994.763427734375,38.219722747802734,0.0014024389982223511,0.0012195122241973877,11.999870000004769,1
1770538711,2026-02-08T00:18:31,3.3061656951904297,21.09943389892578,21.573789596557617,19.973709106445312,21.922895431518555,0.206298828125,0.360107421875,-0.854736328125,-1.46484375,2.349853515625,0.152587890625,32.26205825805664,74.92554473876953,-125.18144989013672,21.302616119384766,994.8339233398438,38.22549819946289,0.0013048779964447022,0.0012195122241973877,11.999849999994039,1
1770538711,2026-02-08T00:18:31,3.313647985458374,21.105371475219727,21.569841384887695,19.969724655151367,21.950483322143555,0.203857421875,0.359130859375,-0.858642578125,-1.28173828125,2.105712890625,-0.152587890625,31.733173370361328,76.51220703125,-122.9733657836914,21.297534942626953,994.7987060546875,38.231361389160156,0.0014024389982223511,0.0012195122241973877,11.999870000004769,1
1770538711,2026-02-08T00:18:31,3.3061656951904297,21.103391647338867,21.567867279052734,19.9757022857666,21.926836013793945,0.204833984375,0.3642578125,-0.8515625,-1.190185546875,2.3193359375,0.091552734375,32.4383544921875,75.80702209472656,-120.93513488769531,21.292455673217773,994.79052734375,38.225555419921875,0.0013048779964447022,0.0012195122241973877,11.999870000004769,1
1770538711,2026-02-08T00:18:31,3.268735885620117,21.109329223632812,21.567867279052734,19.969724655151367,21.94851303100586,0.206787109375,0.3603515625,-0.849609375,-1.373291015625,2.410888671875,0.1220703125,31.733173370361328,76.15961456298828,-122.63365936279297,21.297534942626953,994.7174072265625,38.219696044921875,0.0011951220035552978,0.0017073171138763427,11.999870000004769,1
1770538711,2026-02-08T00:18:31,3.268735885620117,21.10141372680664,21.571815490722656,19.969724655151367,21.92486572265625,0.208984375,0.365234375,-0.859130859375,-1.40380859375,2.227783203125,0.0,31.204286575317383,76.6884994506836,-121.7844009399414,21.302616119384766,994.7797241210938,38.24299621582031,0.0013048779964447022,0.0017073171138763427,11.999859999999403,1
1770538711,2026-02-08T00:18:31,3.2812156677246094,21.109329223632812,21.569841384887695,19.969724655151367,21.913042068481445,0.208984375,0.3623046875,-0.8623046875,-1.434326171875,2.166748046875,0.152587890625,31.380582809448242,74.0440673828125,-122.63365936279297,21.302616119384766,994.8339233398438,38.21383285522461,0.0014024389982223511,0.0012195122241973877,11.999859999999403,1
1770538711,2026-02-08T00:18:31,3.268735885620117,21.105371475219727,21.571815490722656,19.973709106445312,21.94457244873047,0.207275390625,0.361572265625,-0.857666015625,-1.28173828125,2.197265625,0.091552734375,32.26205825805664,74.92554473876953,-122.12409973144531,21.292455673217773,994.763427734375,38.225555419921875,0.0014024389982223511,0.0012195122241973877,11.999870000004769,1
1770538711,2026-02-08T00:18:31,3.2887020111083984,21.09943389892578,21.567867279052734,19.9757022857666,21.92486572265625,0.20947265625,0.36474609375,-0.85498046875,-1.0986328125,2.288818359375,0.06103515625,31.909467697143555,74.92554473876953,-121.7844009399414,21.292455673217773,994.68212890625,38.219722747802734,0.0014024389982223511,0.0012195122241973877,11.999849999994039,1
1770538711,2026-02-08T00:18:31,3.3186357021331787,21.095476150512695,21.57773780822754,19.977693557739258,21.946542739868164,0.203857421875,0.363525390625,-0.856689453125,-1.220703125,2.3193359375,0.030517578125,31.027992248535156,74.74925231933594,-121.61454772949219,21.297534942626953,994.7716064453125,38.225528717041016,0.0013048779964447022,0.0012195122241973877,11.999859999999403,1
1770538711,2026-02-08T00:18:31,3.3610103130340576,21.103391647338867,21.565893173217773,19.969724655151367,21.916982650756836,0.207763671875,0.363037109375,-0.853515625,-1.190185546875,2.166748046875,0.1220703125,32.08576202392578,75.45443725585938,-123.65277862548828,21.307695388793945,994.7608032226562,38.20214080810547,0.0014024389982223511,0.0012195122241973877,11.999849999994039,1
1770538712,2026-02-08T00:18:32,3.273728370666504,21.105371475219727,21.56194496154785,19.965740203857422,21.928808212280273,0.2060546875,0.357666015625,-0.856201171875,-1.3427734375,2.13623046875,-0.18310546875,31.55687713623047,75.63072967529297,-123.14321899414062,21.287376403808594,994.7281494140625,38.219749450683594,0.0011951220035552978,0.0012195122241973877,11.999849999994039,1
1770538712,2026-02-08T00:18:32,3.2712321281433105,21.103391647338867,21.55799674987793,19.961755752563477,21.93471908569336,0.205078125,0.36181640625,-0.85498046875,-1.5869140625,2.38037109375,0.0,31.55687713623047,75.63072967529297,-123.14321899414062,21.297534942626953,994.7716064453125,38.219696044921875,0.0011951220035552978,0.0012195122241973877,11.999859999999403,1
1770538712,2026-02-08T00:18:32,3.4182822704315186,21.105371475219727,21.573789596557617,19.969724655151367,21.932748794555664,0.2021484375,0.362060546875,-0.851806640625,-1.220703125,2.01416015625,0.0,32.26205825805664,75.63072967529297,-122.80351257324219,21.292455673217773,994.709228515625,38.225555419921875,0.0013048779964447022,0.0017073171138763427,11.999870000004769,1
1770538712,2026-02-08T00:18:32,3.261246681213379,21.107349395751953,21.571815490722656,19.977693557739258,21.9741268157959,0.20849609375,0.362548828125,-0.863037109375,-1.220703125,2.227783203125,0.1220703125,30.146514892578125,74.57295989990234,-123.14321899414062,21.292455673217773,994.763427734375,38.225555419921875,0.0014024389982223511,0.0012195122241973877,11.999859999999403,1
1770538712,2026-02-08T00:18:32,3.4133048057556152,21.103391647338867,21.5797119140625,19.977693557739258,21.950483322143555,0.205078125,0.360107421875,-0.84765625,-1.190185546875,1.8310546875,0.244140625,31.733173370361328,75.45443725585938,-123.31307220458984,21.292455673217773,994.68212890625,38.219722747802734,0.0013048779964447022,0.0017073171138763427,11.999849999994039,1
1770538712,2026-02-08T00:18:32,3.3161420822143555,21.109329223632812,21.567867279052734,19.963748931884766,21.94851303100586,0.208740234375,0.36328125,-0.854736328125,-1.220703125,2.3193359375,-0.213623046875,29.61762809753418,75.10184478759766,-121.95425415039062,21.292455673217773,994.736328125,38.231388092041016,0.0014024389982223511,0.0012195122241973877,11.999859999999403,1
1770538712,2026-02-08T00:18:32,3.5028226375579834,21.09943389892578,21.567867279052734,19.969724655151367,21.966245651245117,0.20703125,0.360595703125,-0.854248046875,-1.434326171875,2.38037109375,0.335693359375,31.55687713623047,74.57295989990234,-123.14321899414062,21.302616119384766,994.7797241210938,38.21966552734375,0.0014024389982223511,0.0012195122241973877,11.999849999994039,1
1770538712,2026-02-08T00:18:32,3.468029499053955,21.095476150512695,21.569841384887695,19.965740203857422,21.946542739868164,0.205078125,0.36083984375,-0.8564453125,-1.40380859375,2.471923828125,0.0,31.909467697143555,76.33590698242188,-122.80351257324219,21.292455673217773,994.736328125,38.225555419921875,0.0013048779964447022,0.0012195122241973877,11.999870000004769,1
1770538712,2026-02-08T00:18:32,3.500338315963745,21.09943389892578,21.565893173217773,19.969724655151367,21.913042068481445,0.20458984375,0.36328125,-0.857666015625,-1.46484375,1.953125,-0.152587890625,31.55687713623047,77.04109191894531,-123.14321899414062,21.302616119384766,994.7797241210938,38.21383285522461,0.0014024389982223511,0.0012195122241973877,11.999870000004769,1
1770538712,2026-02-08T00:18:32,3.460570812225342,21.09943389892578,21.567867279052734,19.971717834472656,21.92486572265625,0.205078125,0.3603515625,-0.85302734375,-1.46484375,2.166748046875,-0.030517578125,32.79094696044922,75.45443725585938,-122.63365936279297,21.307695388793945,994.8150024414062,38.23130416870117,0.0014024389982223511,0.0012195122241973877,11.999880000002682,1
1770538713,2026-02-08T00:18:33,3.485429286956787,21.095476150512695,21.56194496154785,19.969724655151367,21.950483322143555,0.20751953125,0.36279296875,-0.858642578125,-1.15966796875,1.953125,-0.091552734375,31.909467697143555,75.98332214355469,-122.12409973144531,21.28229522705078,994.6929321289062,38.237274169921875,0.0013048779964447022,0.0012195122241973877,11.999870000004769,1
1770538713,2026-02-08T00:18:33,3.463057041168213,21.095476150512695,21.567867279052734,19.971717834472656,21.932748794555664,0.2060546875,0.362548828125,-0.8515625,-1.312255859375,2.13623046875,-0.1220703125,31.55687713623047,76.33590698242188,-122.12409973144531,21.287376403808594,994.7281494140625,38.225582122802734,0.0014024389982223511,0.0012195122241973877,11.999870000004769,1
1770538713,2026-02-08T00:18:33,3.5524842739105225,21.08953857421875,21.55997085571289,19.961755752563477,21.946542739868164,0.206787109375,0.361572265625,-0.864013671875,-1.46484375,2.197265625,0.213623046875,32.08576202392578,76.15961456298828,-121.61454772949219,21.292455673217773,994.736328125,38.225555419921875,0.0013048779964447022,0.0012195122241973877,11.999859999999403,1
1770538713,2026-02-08T00:18:33,3.4008588790893555,21.105371475219727,21.56194496154785,19.95777130126953,21.91501235961914,0.213623046875,0.35888671875,-0.85400390625,-1.434326171875,2.349853515625,0.091552734375,31.733173370361328,75.80702209472656,-122.29395294189453,21.287376403808594,994.6469116210938,38.219749450683594,0.0013048779964447022,0.0012195122241973877,11.999870000004769,1
1770538713,2026-02-08T00:18:33,3.390899896621704,21.103391647338867,21.571815490722656,19.963748931884766,21.926836013793945,0.206298828125,0.360107421875,-0.86474609375,-1.5869140625,2.13623046875,0.152587890625,30.49910545349121,75.63072967529297,-122.80351257324219,21.297534942626953,994.7174072265625,38.225528717041016,0.0013048779964447022,0.0012195122241973877,11.999859999999403,1
1770538713,2026-02-08T00:18:33,3.520209789276123,21.11922264099121,21.569841384887695,19.95976448059082,21.932748794555664,0.208251953125,0.363525390625,-0.856201171875,-1.3427734375,2.3193359375,0.091552734375,31.55687713623047,76.33590698242188,-123.14321899414062,21.287376403808594,994.6740112304688,38.237247467041016,0.0015,0.0012195122241973877,11.999859999999403,1
1770538713,2026-02-08T00:18:33,3.475487232208252,21.1132869720459,21.573789596557617,19.969724655151367,21.922895431518555,0.20654296875,0.36083984375,-0.849609375,-1.251220703125,2.105712890625,-0.213623046875,31.027992248535156,75.45443725585938,-122.63365936279297,21.302616119384766,994.752685546875,38.21383285522461,0.0014024389982223511,0.0012195122241973877,11.999859999999403,1
1770538713,2026-02-08T00:18:33,3.273728370666504,21.103391647338867,21.58168601989746,19.973709106445312,21.97806739807129,0.20947265625,0.364501953125,-0.8564453125,-1.251220703125,2.25830078125,0.1220703125,31.733173370361328,74.39665985107422,-122.29395294189453,21.297534942626953,994.7716064453125,38.231361389160156,0.0015,0.0012195122241973877,11.999859999999403,1
1770538713,2026-02-08T00:18:33,3.203789472579956,21.10141372680664,21.569841384887695,19.971717834472656,21.936689376831055,0.21044921875,0.363037109375,-0.85888671875,-1.434326171875,2.197265625,-0.030517578125,31.909467697143555,76.33590698242188,-123.14321899414062,21.302616119384766,994.7255859375,38.20216751098633,0.0014024389982223511,0.0012195122241973877,11.999859999999403,1
1770538713,2026-02-08T00:18:33,3.2162859439849854,21.10141372680664,21.563919067382812,19.971717834472656,21.92486572265625,0.211181640625,0.359375,-0.85205078125,-1.28173828125,2.288818359375,0.1220703125,33.49612808227539,74.39665985107422,-122.63365936279297,21.302616119384766,994.7255859375,38.23133087158203,0.001597561001777649,0.0012195122241973877,11.999859999999403,1
1770538714,2026-02-08T00:18:34,3.24126935005188,21.103391647338867,21.569841384887695,19.96773338317871,21.954423904418945,0.2099609375,0.361083984375,-0.855712890625,-1.312255859375,2.044677734375,0.3662109375,31.027992248535156,75.45443725585938,-122.9733657836914,21.307695388793945,994.7608032226562,38.23130416870117,0.0014024389982223511,0.0012195122241973877,11.999870000004769,1
1770538714,2026-02-08T00:18:34,3.261246681213379,21.09943389892578,21.565893173217773,19.969724655151367,21.932748794555664,0.207763671875,0.364013671875,-0.8525390625,-1.0986328125,1.953125,0.06103515625,32.96723937988281,74.92554473876953,-121.7844009399414,21.297534942626953,994.7174072265625,38.231361389160156,0.0015,0.0012195122241973877,11.999859999999403,1
1770538714,2026-02-08T00:18:34,3.2562530040740967,21.09349822998047,21.563919067382812,19.969724655151367,21.926836013793945,0.209228515625,0.36083984375,-0.8564453125,-1.617431640625,2.227783203125,-0.091552734375,30.675399780273438,75.45443725585938,-122.63365936279297,21.297534942626953,994.7174072265625,38.24302291870117,0.0014024389982223511,0.0012195122241973877,11.999859999999403,1
1770538714,2026-02-08T00:18:34,3.261246681213379,21.09349822998047,21.563919067382812,19.963748931884766,21.954423904418945,0.20654296875,0.364990234375,-0.85595703125,-1.52587890625,2.197265625,-0.06103515625,29.970218658447266,74.74925231933594,-123.31307220458984,21.297534942626953,994.7716064453125,38.231361389160156,0.0013048779964447022,0.0012195122241973877,11.999870000004769,1
1770538714,2026-02-08T00:18:34,3.2562530040740967,21.095476150512695,21.56194496154785,19.95976448059082,21.968215942382812,0.209716796875,0.36474609375,-0.8623046875,-1.190185546875,2.227783203125,0.091552734375,31.909467697143555,74.92554473876953,-122.46380615234375,21.297534942626953,994.7174072265625,38.231361389160156,0.0011951220035552978,0.0012195122241973877,11.999859999999403,1
1770538714,2026-02-08T00:18:34,3.2512588500976562,21.09943389892578,21.55997085571289,19.961755752563477,21.93471908569336,0.2060546875,0.363037109375,-0.855712890625,-1.373291015625,2.349853515625,0.1220703125,31.55687713623047,75.27813720703125,-123.14321899414062,21.302616119384766,994.7255859375,38.22549819946289,0.0015,0.0012195122241973877,11.999880000002682,1
1770538714,2026-02-08T00:18:34,3.3161420822143555,21.09943389892578,21.569841384887695,19.963748931884766,21.932748794555664,0.20556640625,0.363525390625,-0.851806640625,-1.0986328125,2.166748046875,-0.1220703125,32.08576202392578,75.45443725585938,-121.61454772949219,21.302616119384766,994.752685546875,38.23133087158203,0.0011951220035552978,0.0012195122241973877,11.999870000004769,1
1770538714,2026-02-08T00:18:34,3.460570812225342,21.105371475219727,21.569841384887695,19.965740203857422,21.922895431518555,0.20751953125,0.36279296875,-0.857666015625,-1.251220703125,2.197265625,0.18310546875,31.204286575317383,76.33590698242188,-122.46380615234375,21.297534942626953,994.7445068359375,38.225528717041016,0.0013048779964447022,0.0012195122241973877,11.999859999999403,1
1770538714,2026-02-08T00:18:34,3.475487232208252,21.103391647338867,21.567867279052734,19.96773338317871,21.966245651245117,0.205078125,0.356689453125,-0.85205078125,-1.434326171875,2.13623046875,0.18310546875,31.909467697143555,76.33590698242188,-123.14321899414062,21.297534942626953,994.7445068359375,38.2371940612793,0.0011951220035552978,0.0012195122241973877,11.999859999999403,1
1770538714,2026-02-08T00:18:34,3.473001480102539,21.097455978393555,21.565893173217773,19.96773338317871,21.950483322143555,0.20556640625,0.36474609375,-0.852783203125,-1.190185546875,2.13623046875,0.274658203125,30.851696014404297,76.33590698242188,-122.12409973144531,21.302616119384766,994.7255859375,38.23133087158203,0.0011951220035552978,0.0012195122241973877,11.999880000002682,1
1770538715,2026-02-08T00:18:35,3.51275897026062,21.107349395751953,21.565893173217773,19.96773338317871,21.946542739868164,0.205078125,0.3662109375,-0.853759765625,-1.312255859375,2.13623046875,-0.1220703125,30.49910545349121,75.98332214355469,-123.14321899414062,21.297534942626953,994.7716064453125,38.231361389160156,0.0013048779964447022,0.0012195122241973877,11.999859999999403,1
1770538715,2026-02-08T00:18:35,3.550002336502075,21.10141372680664,21.563919067382812,19.965740203857422,21.909099578857422,0.203125,0.3642578125,-0.859619140625,-1.3427734375,2.0751953125,-0.030517578125,30.32280921936035,75.80702209472656,-121.95425415039062,21.302616119384766,994.8068237304688,38.20800018310547,0.0015,0.0012195122241973877,11.999870000004769,1
1770538715,2026-02-08T00:18:35,3.470515489578247,21.09943389892578,21.567867279052734,19.965740203857422,21.91501235961914,0.207763671875,0.3642578125,-0.8583984375,-1.312255859375,2.38037109375,0.030517578125,30.32280921936035,76.51220703125,-124.33219146728516,21.302616119384766,994.7797241210938,38.23716354370117,0.0014024389982223511,0.0012195122241973877,11.999859999999403,1
1770538715,2026-02-08T00:18:35,3.5301427841186523,21.10141372680664,21.565893173217773,19.96773338317871,21.946542739868164,0.2041015625,0.365478515625,-0.85205078125,-1.220703125,2.13623046875,-0.091552734375,31.027992248535156,76.51220703125,-122.9733657836914,21.292455673217773,994.709228515625,38.219722747802734,0.0014024389982223511,0.0012195122241973877,11.999859999999403,1
1770538715,2026-02-08T00:18:35,3.477972984313965,21.09151840209961,21.567867279052734,19.965740203857422,21.950483322143555,0.20458984375,0.364990234375,-0.855712890625,-1.15966796875,2.288818359375,-0.152587890625,32.79094696044922,75.80702209472656,-123.65277862548828,21.307695388793945,994.7337036132812,38.23713684082031,0.0013048779964447022,0.0012195122241973877,11.999870000004769,1
1770538715,2026-02-08T00:18:35,3.448136806488037,21.095476150512695,21.55997085571289,19.969724655151367,21.950483322143555,0.2109375,0.3623046875,-0.858642578125,-1.40380859375,2.288818359375,0.06103515625,31.380582809448242,76.15961456298828,-123.65277862548828,21.302616119384766,994.752685546875,38.23716354370117,0.0013048779964447022,0.0012195122241973877,11.999880000002682,1
1770538715,2026-02-08T00:18:35,3.5152428150177,21.095476150512695,21.56194496154785,19.963748931884766,21.962305068969727,0.206787109375,0.360595703125,-0.8525390625,-1.129150390625,2.0751953125,0.06103515625,31.380582809448242,77.56997680664062,-122.29395294189453,21.307695388793945,994.6795654296875,38.21963882446289,0.0014024389982223511,0.0012195122241973877,11.999859999999403,1
1770538715,2026-02-08T00:18:35,3.5524842739105225,21.095476150512695,21.55997085571289,19.961755752563477,21.922895431518555,0.20849609375,0.36328125,-0.856201171875,-1.03759765625,2.44140625,0.152587890625,32.26205825805664,75.98332214355469,-123.14321899414062,21.302616119384766,994.7797241210938,38.22549819946289,0.0014024389982223511,0.0012195122241973877,11.999859999999403,1
1770538715,2026-02-08T00:18:35,3.3311026096343994,21.09943389892578,21.55997085571289,19.963748931884766,21.932748794555664,0.210205078125,0.36279296875,-0.857421875,-1.373291015625,2.349853515625,0.1220703125,31.909467697143555,73.8677749633789,-122.46380615234375,21.307695388793945,994.7337036132812,38.22547149658203,0.0013048779964447022,0.0012195122241973877,11.999870000004769,1
1770538715,2026-02-08T00:18:35,3.3709754943847656,21.103391647338867,21.569841384887695,19.963748931884766,21.93077850341797,0.20556640625,0.359130859375,-0.849853515625,-1.15966796875,2.197265625,0.06103515625,31.204286575317383,76.33590698242188,-122.80351257324219,21.297534942626953,994.7445068359375,38.219696044921875,0.0014024389982223511,0.0012195122241973877,11.999859999999403,1
1770538716,2026-02-08T00:18:36,3.378448009490967,21.097455978393555,21.567867279052734,19.96773338317871,21.91107177734375,0.20458984375,0.363525390625,-0.855712890625,-1.220703125,2.197265625,0.0,30.851696014404297,75.63072967529297,-123.48292541503906,21.307695388793945,994.7608032226562,38.22547149658203,0.0013048779964447022,0.0012195122241973877,11.999859999999403,1
1770538716,2026-02-08T00:18:36,3.3360886573791504,21.103391647338867,21.565893173217773,19.965740203857422,21.926836013793945,0.2041015625,0.366943359375,-0.854248046875,-1.251220703125,2.349853515625,-0.030517578125,32.61465072631836,75.27813720703125,-122.80351257324219,21.302616119384766,994.752685546875,38.21383285522461,0.0014024389982223511,0.0012195122241973877,11.999859999999403,1
1770538716,2026-02-08T00:18:36,3.356027126312256,21.09943389892578,21.567867279052734,19.96773338317871,21.92486572265625,0.204833984375,0.3603515625,-0.854248046875,-1.3427734375,2.0751953125,0.06103515625,32.08576202392578,75.80702209472656,-121.95425415039062,21.307695388793945,994.7608032226562,38.23130416870117,0.0015,0.0012195122241973877,11.999859999999403,1
1770538716,2026-02-08T00:18:36,3.2986819744110107,21.103391647338867,21.565893173217773,19.963748931884766,21.950483322143555,0.2060546875,0.36474609375,-0.85107421875,-1.129150390625,2.25830078125,0.30517578125,31.380582809448242,74.39665985107422,-122.9733657836914,21.297534942626953,994.7445068359375,38.208030700683594,0.0014024389982223511,0.0012195122241973877,11.999849999994039,1
1770538716,2026-02-08T00:18:36,3.341073989868164,21.09943389892578,21.569841384887695,19.969724655151367,21.95639419555664,0.207275390625,0.364990234375,-0.85888671875,-1.15966796875,2.0751953125,0.091552734375,31.55687713623047,75.98332214355469,-122.12409973144531,21.292455673217773,994.763427734375,38.219722747802734,0.0013048779964447022,0.0012195122241973877,11.999859999999403,1
1770538716,2026-02-08T00:18:36,3.206289052963257,21.107349395751953,21.565893173217773,19.96773338317871,21.94457244873047,0.20849609375,0.364013671875,-0.856201171875,-1.03759765625,2.01416015625,-0.06103515625,30.49910545349121,76.33590698242188,-123.8226318359375,21.297534942626953,994.7716064453125,38.213863372802734,0.0014024389982223511,0.0012195122241973877,11.999859999999403,1
1770538716,2026-02-08T00:18:36,3.253756046295166,21.09349822998047,21.565893173217773,19.96773338317871,21.901216506958008,0.20849609375,0.359375,-0.8525390625,-1.46484375,2.197265625,0.1220703125,30.49910545349121,75.98332214355469,-123.14321899414062,21.307695388793945,994.7337036132812,38.20797348022461,0.0013048779964447022,0.0012195122241973877,11.999849999994039,1
1770538716,2026-02-08T00:18:36,3.176285982131958,21.1132869720459,21.571815490722656,19.9757022857666,21.95245361328125,0.20751953125,0.36474609375,-0.85400390625,-1.251220703125,2.13623046875,-0.152587890625,31.55687713623047,75.63072967529297,-122.12409973144531,21.302616119384766,994.752685546875,38.21966552734375,0.0013048779964447022,0.0012195122241973877,11.999849999994039,1
1770538716,2026-02-08T00:18:36,3.1912899017333984,21.08953857421875,21.571815490722656,19.965740203857422,21.9741268157959,0.207763671875,0.364013671875,-0.854248046875,-1.495361328125,2.197265625,0.091552734375,32.08576202392578,76.51220703125,-122.63365936279297,21.302616119384766,994.752685546875,38.21383285522461,0.0014024389982223511,0.0012195122241973877,11.999870000004769,1
1770538716,2026-02-08T00:18:36,3.2012898921966553,21.095476150512695,21.554048538208008,19.95976448059082,21.928808212280273,0.206298828125,0.3642578125,-0.861328125,-1.373291015625,2.44140625,-0.152587890625,31.733173370361328,75.45443725585938,-122.63365936279297,21.297534942626953,994.7716064453125,38.219696044921875,0.0014024389982223511,0.0012195122241973877,11.999870000004769,1
1770538717,2026-02-08T00:18:37,3.2362735271453857,21.09943389892578,21.55799674987793,19.961755752563477,21.926836013793945,0.2099609375,0.362060546875,-0.85107421875,-1.251220703125,2.13623046875,-0.18310546875,31.55687713623047,75.27813720703125,-122.80351257324219,21.307695388793945,994.7608032226562,38.21963882446289,0.0014024389982223511,0.0012195122241973877,11.999849999994039,1
1770538717,2026-02-08T00:18:37,3.2812156677246094,21.109329223632812,21.5797119140625,19.99163818359375,21.964275360107422,0.2060546875,0.362548828125,-0.854248046875,-1.312255859375,2.227783203125,-0.030517578125,31.027992248535156,75.10184478759766,-122.29395294189453,21.302616119384766,994.7797241210938,38.21383285522461,0.0013048779964447022,0.0012195122241973877,11.999870000004769,1
1770538717,2026-02-08T00:18:37,3.276224136352539,21.103391647338867,21.571815490722656,19.95976448059082,21.966245651245117,0.203857421875,0.36474609375,-0.857666015625,-1.312255859375,2.13623046875,-0.213623046875,32.08576202392578,75.80702209472656,-122.9733657836914,21.302616119384766,994.752685546875,38.20800018310547,0.0013048779964447022,0.0012195122241973877,11.999859999999403,1
1770538717,2026-02-08T00:18:37,3.448136806488037,21.097455978393555,21.57773780822754,19.969724655151367,21.95245361328125,0.20361328125,0.36376953125,-0.848876953125,-1.373291015625,2.13623046875,0.213623046875,31.909467697143555,75.63072967529297,-121.44469451904297,21.307695388793945,994.7337036132812,38.21963882446289,0.0014024389982223511,0.0012195122241973877,11.999870000004769,1
1770538717,2026-02-08T00:18:37,3.2911972999572754,21.103391647338867,21.567867279052734,19.96773338317871,21.96033477783203,0.20654296875,0.36669921875,-0.857421875,-1.28173828125,2.13623046875,0.18310546875,30.675399780273438,75.80702209472656,-122.9733657836914,21.302616119384766,994.7255859375,38.22549819946289,0.0013048779964447022,0.0012195122241973877,11.999840000003577,1
1770538717,2026-02-08T00:18:37,3.3111541271209717,21.105371475219727,21.571815490722656,19.9757022857666,21.940629959106445,0.20556640625,0.360107421875,-0.849853515625,-1.5869140625,2.471923828125,0.030517578125,31.55687713623047,76.6884994506836,-123.14321899414062,21.292455673217773,994.68212890625,38.20805740356445,0.0013048779964447022,0.0012195122241973877,11.999849999994039,1
1770538717,2026-02-08T00:18:37,3.313647985458374,21.11922264099121,21.587608337402344,19.981678009033203,21.946542739868164,0.20703125,0.36181640625,-0.8583984375,-1.52587890625,2.5634765625,-0.091552734375,30.49910545349121,75.27813720703125,-122.12409973144531,21.302616119384766,994.7797241210938,38.21966552734375,0.0014024389982223511,0.0012195122241973877,11.999859999999403,1
1770538717,2026-02-08T00:18:37,3.2862067222595215,21.107349395751953,21.575763702392578,19.99960708618164,21.95245361328125,0.209228515625,0.36083984375,-0.856689453125,-1.190185546875,1.89208984375,0.030517578125,30.851696014404297,74.22036743164062,-121.10498809814453,21.297534942626953,994.7445068359375,38.20219802856445,0.0014024389982223511,0.0017073171138763427,11.999849999994039,1
1770538717,2026-02-08T00:18:37,3.542555809020996,21.11130714416504,21.57773780822754,19.981678009033203,21.95245361328125,0.2060546875,0.365478515625,-0.855712890625,-1.312255859375,2.532958984375,0.213623046875,31.55687713623047,74.92554473876953,-122.12409973144531,21.307695388793945,994.7337036132812,38.20214080810547,0.0014024389982223511,0.0017073171138763427,11.999870000004769,1
1770538717,2026-02-08T00:18:37,3.4804584980010986,21.09349822998047,21.56194496154785,19.965740203857422,21.95639419555664,0.209716796875,0.361328125,-0.8564453125,-1.312255859375,2.166748046875,0.030517578125,32.26205825805664,77.39368438720703,-122.46380615234375,21.302616119384766,994.752685546875,38.20800018310547,0.0015,0.0012195122241973877,11.999870000004769,1
1770538718,2026-02-08T00:18:38,3.4928841590881348,21.095476150512695,21.569841384887695,19.96773338317871,21.94457244873047,0.205078125,0.36328125,-0.85986328125,-1.373291015625,2.288818359375,0.152587890625,31.909467697143555,76.6884994506836,-122.12409973144531,21.302616119384766,994.752685546875,38.20216751098633,0.0015,0.0012195122241973877,11.999859999999403,1
1770538718,2026-02-08T00:18:38,3.477972984313965,21.097455978393555,21.55602264404297,19.961755752563477,21.92092514038086,0.203857421875,0.365234375,-0.85595703125,-1.495361328125,2.01416015625,0.06103515625,30.146514892578125,75.27813720703125,-123.14321899414062,21.297534942626953,994.7445068359375,38.19636535644531,0.0014024389982223511,0.0012195122241973877,11.999870000004769,1
1770538718,2026-02-08T00:18:38,3.3161420822143555,21.097455978393555,21.55799674987793,19.969724655151367,21.95639419555664,0.206298828125,0.35986328125,-0.85205078125,-1.52587890625,1.8310546875,0.030517578125,31.733173370361328,74.74925231933594,-123.99248504638672,21.307695388793945,994.7879028320312,38.19047546386719,0.0014024389982223511,0.0012195122241973877,11.999859999999403,1
1770538718,2026-02-08T00:18:38,3.2312774658203125,21.13109588623047,21.55997085571289,19.96773338317871,21.94260025024414,0.20556640625,0.359375,-0.854736328125,-1.46484375,1.89208984375,-0.091552734375,31.027992248535156,76.86479949951172,-123.31307220458984,21.307695388793945,994.7066040039062,38.19630813598633,0.0014024389982223511,0.0012195122241973877,11.999859999999403,1
1770538718,2026-02-08T00:18:38,3.203789472579956,21.103391647338867,21.567867279052734,19.95976448059082,21.901216506958008,0.208740234375,0.361328125,-0.85205078125,-1.40380859375,2.349853515625,0.1220703125,31.380582809448242,76.15961456298828,-122.63365936279297,21.297534942626953,994.7445068359375,38.20219802856445,0.0014024389982223511,0.0012195122241973877,11.999859999999403,1
1770538718,2026-02-08T00:18:38,3.2862067222595215,21.097455978393555,21.571815490722656,19.96773338317871,21.922895431518555,0.210205078125,0.36279296875,-0.849853515625,-1.251220703125,2.410888671875,-0.091552734375,30.49910545349121,76.33590698242188,-122.80351257324219,21.292455673217773,994.68212890625,38.20805740356445,0.0014024389982223511,0.0012195122241973877,11.999870000004769,1
1770538718,2026-02-08T00:18:38,3.550002336502075,21.103391647338867,21.565893173217773,19.971717834472656,21.964275360107422,0.2080078125,0.3642578125,-0.85986328125,-1.312255859375,2.227783203125,0.030517578125,32.08576202392578,75.10184478759766,-123.31307220458984,21.297534942626953,994.7716064453125,38.19636535644531,0.0015,0.0012195122241973877,11.999870000004769,1
1770538718,2026-02-08T00:18:38,3.468029499053955,21.103391647338867,21.56194496154785,19.96773338317871,21.90515899658203,0.208740234375,0.359619140625,-0.854736328125,-1.52587890625,2.38037109375,0.274658203125,32.79094696044922,75.45443725585938,-122.9733657836914,21.297534942626953,994.7445068359375,38.18470001220703,0.0013048779964447022,0.0012195122241973877,11.999859999999403,1
1770538718,2026-02-08T00:18:38,3.4307239055633545,21.103391647338867,21.571815490722656,19.969724655151367,21.909099578857422,0.206787109375,0.3603515625,-0.85400390625,-1.3427734375,2.288818359375,-0.030517578125,31.380582809448242,74.39665985107422,-123.31307220458984,21.302616119384766,994.752685546875,38.20216751098633,0.0014024389982223511,0.0012195122241973877,11.999859999999403,1
1770538718,2026-02-08T00:18:38,3.5276596546173096,21.097455978393555,21.565893173217773,19.979686737060547,21.916982650756836,0.207763671875,0.363037109375,-0.853759765625,-1.28173828125,2.349853515625,-0.06103515625,32.08576202392578,76.51220703125,-123.31307220458984,21.297534942626953,994.7716064453125,38.18470001220703,0.0015,0.0012195122241973877,11.999859999999403,1
1770538719,2026-02-08T00:18:39,3.5698537826538086,21.103391647338867,21.567867279052734,19.969724655151367,21.954423904418945,0.20703125,0.367431640625,-0.8486328125,-1.3427734375,2.166748046875,0.091552734375,31.733173370361328,74.39665985107422,-121.27484130859375,21.302616119384766,994.752685546875,38.20216751098633,0.0015,0.0012195122241973877,11.999859999999403,1
1770538719,2026-02-08T00:18:39,3.537590980529785,21.09943389892578,21.575763702392578,19.969724655151367,21.94457244873047,0.205078125,0.3603515625,-0.85498046875,-1.373291015625,2.0751953125,-0.152587890625,31.55687713623047,75.27813720703125,-123.48292541503906,21.302616119384766,994.7255859375,38.19633483886719,0.0015,0.0012195122241973877,11.999880000002682,1
1770538719,2026-02-08T00:18:39,3.5276596546173096,21.09943389892578,21.565893173217773,19.971717834472656,21.964275360107422,0.203857421875,0.36083984375,-0.854736328125,-1.3427734375,2.105712890625,0.213623046875,30.851696014404297,77.04109191894531,-122.12409973144531,21.307695388793945,994.7879028320312,38.20214080810547,0.0013048779964447022,0.0012195122241973877,11.999870000004769,1
1770538719,2026-02-08T00:18:39,3.550002336502075,21.123180389404297,21.571815490722656,19.977693557739258,21.922895431518555,0.2080078125,0.364013671875,-0.85546875,-1.28173828125,2.166748046875,-0.152587890625,32.96723937988281,76.33590698242188,-121.7844009399414,21.297534942626953,994.7174072265625,38.18470001220703,0.0013048779964447022,0.0012195122241973877,11.999859999999403,1
1770538719,2026-02-08T00:18:39,3.3734664916992188,21.105371475219727,21.55602264404297,19.977693557739258,21.95245361328125,0.206787109375,0.357177734375,-0.8564453125,-1.220703125,2.227783203125,0.213623046875,31.380582809448242,75.45443725585938,-121.27484130859375,21.302616119384766,994.7797241210938,38.19633483886719,0.0013048779964447022,0.00048780488967895507,11.999859999999403,1
1770538719,2026-02-08T00:18:39,3.356027126312256,21.11130714416504,21.563919067382812,19.973709106445312,21.928808212280273,0.20849609375,0.362548828125,-0.855224609375,-1.190185546875,2.227783203125,0.06103515625,32.4383544921875,75.80702209472656,-122.63365936279297,21.307695388793945,994.7337036132812,38.20214080810547,0.0013048779964447022,0.0007317073345184327,11.999859999999403,1
1770538719,2026-02-08T00:18:39,3.398369312286377,21.103391647338867,21.554048538208008,19.96773338317871,21.96033477783203,0.20458984375,0.362548828125,-0.853271484375,-1.28173828125,2.3193359375,0.06103515625,30.146514892578125,76.33590698242188,-122.12409973144531,21.302616119384766,994.7797241210938,38.173004150390625,0.0013048779964447022,0.00048780488967895507,11.999870000004769,1
1770538719,2026-02-08T00:18:39,3.3659932613372803,21.09349822998047,21.56194496154785,19.96773338317871,21.936689376831055,0.205810546875,0.36279296875,-0.85498046875,-1.190185546875,2.0751953125,0.06103515625,30.851696014404297,75.98332214355469,-123.14321899414062,21.302616119384766,994.7255859375,38.184669494628906,0.0014024389982223511,0.00048780488967895507,11.999859999999403,1
1770538719,2026-02-08T00:18:39,3.522693157196045,21.103391647338867,21.554048538208008,19.963748931884766,21.93077850341797,0.206787109375,0.366943359375,-0.858154296875,-1.129150390625,2.105712890625,0.152587890625,29.61762809753418,74.74925231933594,-122.63365936279297,21.302616119384766,994.7255859375,38.19633483886719,0.0014024389982223511,0.00048780488967895507,11.999870000004769,1
1770538719,2026-02-08T00:18:39,3.4928841590881348,21.097455978393555,21.554048538208008,19.961755752563477,21.90515899658203,0.2041015625,0.3603515625,-0.8515625,-1.40380859375,2.0751953125,0.3662109375,31.027992248535156,75.80702209472656,-122.9733657836914,21.307695388793945,994.7608032226562,38.18464279174805,0.0015,0.00048780488967895507,11.999859999999403,1
1770538720,2026-02-08T00:18:40,3.517726421356201,21.107349395751953,21.55997085571289,19.969724655151367,21.922895431518555,0.205078125,0.36474609375,-0.854248046875,-1.220703125,2.62451171875,0.274658203125,32.08576202392578,75.10184478759766,-122.9733657836914,21.307695388793945,994.7337036132812,38.19630813598633,0.0014024389982223511,0.0012195122241973877,11.999870000004769,1
1770538720,2026-02-08T00:18:40,3.542555809020996,21.103391647338867,21.55997085571289,19.971717834472656,21.96033477783203,0.209228515625,0.363525390625,-0.854736328125,-1.190185546875,2.25830078125,0.213623046875,30.675399780273438,74.74925231933594,-122.9733657836914,21.307695388793945,994.7879028320312,38.19630813598633,0.0014024389982223511,0.00048780488967895507,11.999870000004769,1
1770538720,2026-02-08T00:18:40,3.577296257019043,21.09943389892578,21.567867279052734,19.969724655151367,21.92092514038086,0.2109375,0.364501953125,-0.8564453125,-1.52587890625,2.01416015625,0.030517578125,32.08576202392578,75.80702209472656,-122.63365936279297,21.302616119384766,994.7255859375,38.20800018310547,0.0014024389982223511,0.0007317073345184327,11.999859999999403,1
1770538720,2026-02-08T00:18:40,3.3958795070648193,21.09943389892578,21.55997085571289,19.977693557739258,21.950483322143555,0.205078125,0.360595703125,-0.85986328125,-1.03759765625,2.3193359375,0.0,31.55687713623047,74.92554473876953,-123.14321899414062,21.302616119384766,994.7255859375,38.184669494628906,0.0015,0.00048780488967895507,11.999870000004769,1
1770538720,2026-02-08T00:18:40,3.3859195709228516,21.103391647338867,21.55602264404297,19.9757022857666,21.96033477783203,0.2109375,0.36376953125,-0.856689453125,-1.28173828125,2.410888671875,-0.030517578125,31.55687713623047,73.8677749633789,-122.12409973144531,21.302616119384766,994.7797241210938,38.19050216674805,0.0013048779964447022,0.0012195122241973877,11.999870000004769,1
1770538720,2026-02-08T00:18:40,3.3335957527160645,21.12120246887207,21.569841384887695,19.981678009033203,21.946542739868164,0.2041015625,0.362060546875,-0.858154296875,-1.373291015625,2.227783203125,0.030517578125,31.733173370361328,74.74925231933594,-122.63365936279297,21.302616119384766,994.7255859375,38.20800018310547,0.0015,0.0012195122241973877,11.999870000004769,1
1770538720,2026-02-08T00:18:40,3.323622941970825,21.10141372680664,21.563919067382812,19.977693557739258,21.922895431518555,0.208740234375,0.361083984375,-0.85400390625,-1.312255859375,2.288818359375,0.091552734375,31.204286575317383,75.63072967529297,-122.12409973144531,21.312774658203125,994.7689819335938,38.21961212158203,0.0015,0.0007317073345184327,11.999859999999403,1
1770538720,2026-02-08T00:18:40,3.253756046295166,21.09943389892578,21.565893173217773,19.969724655151367,21.936689376831055,0.208251953125,0.36181640625,-0.857421875,-1.251220703125,1.983642578125,0.213623046875,31.204286575317383,75.63072967529297,-122.12409973144531,21.312774658203125,994.7689819335938,38.19628143310547,0.0013048779964447022,0.0007317073345184327,11.999870000004769,1
1770538720,2026-02-08T00:18:40,3.2512588500976562,21.097455978393555,21.571815490722656,19.979686737060547,21.94457244873047,0.204345703125,0.365234375,-0.85888671875,-1.434326171875,2.105712890625,0.06103515625,32.08576202392578,75.45443725585938,-122.9733657836914,21.302616119384766,994.7255859375,38.19633483886719,0.0013048779964447022,0.00048780488967895507,11.999859999999403,1
1770538720,2026-02-08T00:18:40,3.2562530040740967,21.09943389892578,21.55799674987793,19.965740203857422,21.954423904418945,0.206787109375,0.361572265625,-0.851806640625,-1.190185546875,2.197265625,0.213623046875,31.027992248535156,76.51220703125,-122.63365936279297,21.307695388793945,994.7879028320312,38.20797348022461,0.0011951220035552978,0.0007317073345184327,11.999840000003577,1
1770538721,2026-02-08T00:18:41,3.2911972999572754,21.09943389892578,21.56194496154785,19.965740203857422,21.93471908569336,0.2080078125,0.361328125,-0.86181640625,-1.28173828125,2.0751953125,0.30517578125,31.733173370361328,75.10184478759766,-122.29395294189453,21.312774658203125,994.7960815429688,38.18461608886719,0.0013048779964447022,0.0007317073345184327,11.999870000004769,1
1770538721,2026-02-08T00:18:41,3.2936923503875732,21.11130714416504,21.554048538208008,19.965740203857422,21.95639419555664,0.209228515625,0.36181640625,-0.854736328125,-1.0986328125,2.0751953125,-0.06103515625,30.851696014404297,75.63072967529297,-123.14321899414062,21.312774658203125,994.7689819335938,38.19044876098633,0.0013048779964447022,0.00048780488967895507,11.999859999999403,1
1770538721,2026-02-08T00:18:41,3.3261163234710693,21.103391647338867,21.565893173217773,19.965740203857422,21.91501235961914,0.207763671875,0.361083984375,-0.8564453125,-1.28173828125,2.105712890625,0.213623046875,30.675399780273438,75.10184478759766,-124.33219146728516,21.307695388793945,994.7608032226562,38.20797348022461,0.0014024389982223511,0.0007317073345184327,11.999859999999403,1
1770538721,2026-02-08T00:18:41,3.4008588790893555,21.109329223632812,21.567867279052734,19.969724655151367,21.932748794555664,0.208251953125,0.3623046875,-0.853515625,-1.220703125,2.197265625,0.06103515625,32.4383544921875,74.0440673828125,-123.99248504638672,21.302616119384766,994.7255859375,38.19633483886719,0.0015,0.0007317073345184327,11.999870000004769,1
1770538721,2026-02-08T00:18:41,3.5797767639160156,21.107349395751953,21.563919067382812,19.969724655151367,21.88939094543457,0.208251953125,0.360107421875,-0.851806640625,-1.28173828125,2.197265625,-0.06103515625,31.027992248535156,76.15961456298828,-122.29395294189453,21.312774658203125,994.7689819335938,38.20211410522461,0.0014024389982223511,0.0007317073345184327,11.999870000004769,1
1770538721,2026-02-08T00:18:41,3.5351083278656006,21.103391647338867,21.563919067382812,19.9757022857666,21.916982650756836,0.206787109375,0.364501953125,-0.853271484375,-1.129150390625,2.105712890625,-0.091552734375,31.909467697143555,74.92554473876953,-123.48292541503906,21.302616119384766,994.7797241210938,38.19633483886719,0.0013048779964447022,0.0007317073345184327,11.999870000004769,1
1770538721,2026-02-08T00:18:41,3.4232592582702637,21.105371475219727,21.563919067382812,19.977693557739258,21.922895431518555,0.208984375,0.362548828125,-0.852783203125,-1.52587890625,2.3193359375,0.0,32.61465072631836,75.27813720703125,-122.46380615234375,21.307695388793945,994.8150024414062,38.19047546386719,0.0014024389982223511,0.00048780488967895507,11.999849999994039,1
1770538721,2026-02-08T00:18:41,3.4928841590881348,21.10141372680664,21.56194496154785,19.971717834472656,21.95245361328125,0.20703125,0.367431640625,-0.85107421875,-1.373291015625,2.288818359375,-0.030517578125,31.733173370361328,75.10184478759766,-122.63365936279297,21.297534942626953,994.7716064453125,38.208030700683594,0.0013048779964447022,0.00048780488967895507,11.999859999999403,1
1770538721,2026-02-08T00:18:41,3.520209789276123,21.117244720458984,21.563919067382812,19.973709106445312,21.940629959106445,0.2060546875,0.36376953125,-0.853759765625,-1.52587890625,2.01416015625,0.152587890625,31.55687713623047,74.92554473876953,-122.46380615234375,21.312774658203125,994.7689819335938,38.20794677734375,0.0014024389982223511,0.0012195122241973877,11.999859999999403,1
1770538721,2026-02-08T00:18:41,3.532625675201416,21.10141372680664,21.55997085571289,19.965740203857422,21.907129287719727,0.2080078125,0.36376953125,-0.856689453125,-1.434326171875,2.0751953125,0.0,31.55687713623047,75.27813720703125,-122.80351257324219,21.302616119384766,994.7255859375,38.19633483886719,0.0013048779964447022,0.0,11.999849999994039,1
1770538722,2026-02-08T00:18:42,3.532625675201416,21.107349395751953,21.563919067382812,19.983671188354492,21.932748794555664,0.209716796875,0.36328125,-0.853759765625,-1.495361328125,2.44140625,0.091552734375,31.733173370361328,75.80702209472656,-122.9733657836914,21.302616119384766,994.8068237304688,38.20216751098633,0.0015,0.00048780488967895507,11.999859999999403,1
1770538722,2026-02-08T00:18:42,3.5028226375579834,21.105371475219727,21.56194496154785,19.973709106445312,21.926836013793945,0.205322265625,0.362060546875,-0.857666015625,-1.190185546875,2.13623046875,0.06103515625,31.733173370361328,74.74925231933594,-123.31307220458984,21.312774658203125,994.8502807617188,38.21961212158203,0.001597561001777649,0.00048780488967895507,11.999870000004769,1
1770538722,2026-02-08T00:18:42,3.470515489578247,21.10141372680664,21.563919067382812,19.973709106445312,21.93077850341797,0.209228515625,0.3623046875,-0.853515625,-1.40380859375,2.3193359375,-0.06103515625,31.909467697143555,75.27813720703125,-123.14321899414062,21.307695388793945,994.7337036132812,38.19630813598633,0.0015,0.00048780488967895507,11.999859999999403,1
1770538722,2026-02-08T00:18:42,3.5053069591522217,21.107349395751953,21.563919067382812,19.973709106445312,21.92486572265625,0.207275390625,0.363037109375,-0.854248046875,-1.434326171875,2.288818359375,0.18310546875,30.32280921936035,75.10184478759766,-122.63365936279297,21.312774658203125,994.7418823242188,38.20794677734375,0.0015,0.00048780488967895507,11.999870000004769,1
1770538722,2026-02-08T00:18:42,3.5301427841186523,21.105371475219727,21.55799674987793,19.96773338317871,21.962305068969727,0.2041015625,0.361328125,-0.85986328125,-1.434326171875,2.410888671875,-0.06103515625,31.909467697143555,75.27813720703125,-122.12409973144531,21.302616119384766,994.752685546875,38.20800018310547,0.0014024389982223511,0.0,11.999859999999403,1
1770538722,2026-02-08T00:18:42,3.43818736076355,21.103391647338867,21.565893173217773,19.971717834472656,21.954423904418945,0.20751953125,0.359375,-0.852294921875,-1.129150390625,1.983642578125,0.274658203125,32.08576202392578,75.10184478759766,-123.65277862548828,21.302616119384766,994.7255859375,38.20800018310547,0.0014024389982223511,0.00048780488967895507,11.999859999999403,1
1770538722,2026-02-08T00:18:42,3.5028226375579834,21.109329223632812,21.56194496154785,19.973709106445312,21.91501235961914,0.205078125,0.362548828125,-0.850830078125,-1.129150390625,2.25830078125,-0.030517578125,31.55687713623047,74.92554473876953,-121.7844009399414,21.302616119384766,994.7797241210938,38.21383285522461,0.0013048779964447022,0.0007317073345184327,11.999849999994039,1
1770538722,2026-02-08T00:18:42,3.559929132461548,21.11922264099121,21.573789596557617,19.983671188354492,21.94260025024414,0.207763671875,0.360107421875,-0.855712890625,-1.28173828125,2.13623046875,-0.1220703125,31.204286575317383,74.57295989990234,-123.14321899414062,21.302616119384766,994.698486328125,38.21383285522461,0.0013048779964447022,0.0007317073345184327,11.999880000002682,1
1770538722,2026-02-08T00:18:42,3.520209789276123,21.105371475219727,21.567867279052734,19.979686737060547,21.932748794555664,0.20947265625,0.3623046875,-0.850830078125,-1.52587890625,2.349853515625,0.244140625,31.204286575317383,75.63072967529297,-122.46380615234375,21.302616119384766,994.7255859375,38.20800018310547,0.0015,0.0012195122241973877,11.999849999994039,1
1770538722,2026-02-08T00:18:42,3.473001480102539,21.107349395751953,21.563919067382812,19.981678009033203,21.950483322143555,0.206787109375,0.361083984375,-0.857421875,-1.40380859375,2.197265625,0.1220703125,32.61465072631836,75.98332214355469,-122.12409973144531,21.302616119384766,994.7797241210938,38.20216751098633,0.0014024389982223511,0.0012195122241973877,11.999870000004769,1
1770538723,2026-02-08T00:18:43,3.308659791946411,21.095476150512695,21.563919067382812,19.981678009033203,21.940629959106445,0.204345703125,0.362060546875,-0.8564453125,-1.129150390625,2.197265625,0.213623046875,30.32280921936035,77.2173843383789,-123.31307220458984,21.307695388793945,994.7608032226562,38.20797348022461,0.0013048779964447022,0.00048780488967895507,11.999849999994039,1
1770538723,2026-02-08T00:18:43,3.261246681213379,21.103391647338867,21.563919067382812,19.971717834472656,21.93077850341797,0.205322265625,0.361083984375,-0.85205078125,-1.251220703125,2.044677734375,-0.152587890625,32.26205825805664,75.27813720703125,-123.8226318359375,21.297534942626953,994.6903076171875,38.20219802856445,0.0013048779964447022,0.0007317073345184327,11.999859999999403,1
1770538723,2026-02-08T00:18:43,3.261246681213379,21.11130714416504,21.567867279052734,19.973709106445312,21.940629959106445,0.206787109375,0.365966796875,-0.84912109375,-1.220703125,2.3193359375,-0.06103515625,32.26205825805664,75.63072967529297,-121.7844009399414,21.312774658203125,994.7418823242188,38.21377944946289,0.0013048779964447022,0.0007317073345184327,11.999870000004769,1
1770538723,2026-02-08T00:18:43,3.2162859439849854,21.1132869720459,21.571815490722656,19.977693557739258,21.94260025024414,0.207763671875,0.362548828125,-0.8515625,-1.220703125,2.13623046875,-0.1220703125,31.204286575317383,76.6884994506836,-122.80351257324219,21.317855834960938,994.7771606445312,38.20208740234375,0.0015,0.0012195122241973877,11.999859999999403,1
1770538723,2026-02-08T00:18:43,3.3709754943847656,21.11130714416504,21.571815490722656,19.979686737060547,21.94457244873047,0.20751953125,0.36328125,-0.853271484375,-1.495361328125,2.25830078125,0.213623046875,30.49910545349121,75.27813720703125,-121.7844009399414,21.307695388793945,994.7608032226562,38.21380615234375,0.001597561001777649,0.0007317073345184327,11.999849999994039,1
1770538723,2026-02-08T00:18:43,3.4829437732696533,21.12120246887207,21.575763702392578,19.98566246032715,21.946542739868164,0.205810546875,0.35986328125,-0.856689453125,-1.0986328125,2.166748046875,0.18310546875,30.49910545349121,75.27813720703125,-123.48292541503906,21.302616119384766,994.752685546875,38.22549819946289,0.0013048779964447022,0.0007317073345184327,11.999870000004769,1
1770538723,2026-02-08T00:18:43,3.5450382232666016,21.109329223632812,21.569841384887695,19.981678009033203,21.954423904418945,0.20556640625,0.361572265625,-0.856201171875,-1.251220703125,2.0751953125,-0.030517578125,31.733173370361328,74.39665985107422,-123.65277862548828,21.307695388793945,994.7608032226562,38.21380615234375,0.0014024389982223511,0.0007317073345184327,11.999859999999403,1
1770538723,2026-02-08T00:18:43,3.5673727989196777,21.109329223632812,21.569841384887695,19.9757022857666,21.936689376831055,0.2080078125,0.36376953125,-0.853759765625,-1.495361328125,2.410888671875,-0.244140625,31.027992248535156,76.51220703125,-121.61454772949219,21.307695388793945,994.7608032226562,38.21380615234375,0.0014024389982223511,0.0007317073345184327,11.999870000004769,1
1770538723,2026-02-08T00:18:43,3.542555809020996,21.1132869720459,21.573789596557617,19.983671188354492,21.972156524658203,0.20947265625,0.36572265625,-0.854248046875,-1.434326171875,2.3193359375,0.152587890625,33.31983184814453,74.92554473876953,-122.12409973144531,21.302616119384766,994.7797241210938,38.19050216674805,0.0014024389982223511,0.0007317073345184327,11.999870000004769,1
1770538723,2026-02-08T00:18:43,3.5276596546173096,21.127138137817383,21.575763702392578,19.977693557739258,21.93865966796875,0.20947265625,0.360595703125,-0.85791015625,-1.3427734375,2.227783203125,0.06103515625,32.4383544921875,75.80702209472656,-122.29395294189453,21.307695388793945,994.7608032226562,38.21380615234375,0.0015,0.0012195122241973877,11.999870000004769,1
1770538724,2026-02-08T00:18:44,3.3610103130340576,21.109329223632812,21.567867279052734,19.981678009033203,21.95639419555664,0.2021484375,0.36572265625,-0.855712890625,-1.28173828125,2.410888671875,0.213623046875,31.733173370361328,75.10184478759766,-123.31307220458984,21.307695388793945,994.7608032226562,38.20797348022461,0.0015,0.0007317073345184327,11.999849999994039,1
1770538724,2026-02-08T00:18:44,3.1987900733947754,21.103391647338867,21.5797119140625,19.983671188354492,21.976097106933594,0.2060546875,0.361083984375,-0.856201171875,-1.28173828125,2.44140625,0.1220703125,31.204286575317383,75.27813720703125,-121.10498809814453,21.307695388793945,994.7879028320312,38.21380615234375,0.0013048779964447022,0.0012195122241973877,11.999849999994039,1
1770538724,2026-02-08T00:18:44,3.2312774658203125,21.09943389892578,21.567867279052734,19.9757022857666,21.93471908569336,0.20556640625,0.359130859375,-0.8515625,-1.40380859375,2.25830078125,-0.152587890625,32.08576202392578,75.80702209472656,-123.65277862548828,21.312774658203125,994.7689819335938,38.21377944946289,0.0013048779964447022,0.0007317073345184327,11.999849999994039,1
1770538724,2026-02-08T00:18:44,3.2162859439849854,21.09943389892578,21.571815490722656,19.973709106445312,21.918954849243164,0.205810546875,0.3642578125,-0.853759765625,-1.251220703125,2.197265625,-0.213623046875,30.675399780273438,74.74925231933594,-122.29395294189453,21.307695388793945,994.7608032226562,38.19630813598633,0.0014024389982223511,0.0007317073345184327,11.999859999999403,1
1770538724,2026-02-08T00:18:44,3.2012898921966553,21.115264892578125,21.563919067382812,19.969724655151367,21.93077850341797,0.2080078125,0.363037109375,-0.851806640625,-1.40380859375,2.38037109375,-0.213623046875,32.26205825805664,76.33590698242188,-123.48292541503906,21.312774658203125,994.7960815429688,38.18461608886719,0.0014024389982223511,0.0012195122241973877,11.999870000004769,1
1770538724,2026-02-08T00:18:44,3.176285982131958,21.115264892578125,21.569841384887695,19.96773338317871,21.93471908569336,0.20458984375,0.36376953125,-0.8603515625,-1.0986328125,2.3193359375,0.274658203125,31.733173370361328,76.51220703125,-123.31307220458984,21.302616119384766,994.752685546875,38.173004150390625,0.0015,0.0012195122241973877,11.999870000004769,1
1770538724,2026-02-08T00:18:44,3.2487616539001465,21.109329223632812,21.57773780822754,19.979686737060547,21.940629959106445,0.208251953125,0.362548828125,-0.856201171875,-1.495361328125,2.13623046875,0.030517578125,30.851696014404297,76.6884994506836,-123.48292541503906,21.297534942626953,994.7174072265625,38.19636535644531,0.0015,0.0007317073345184327,11.999870000004769,1
1770538724,2026-02-08T00:18:44,3.266239643096924,21.115264892578125,21.573789596557617,19.981678009033203,21.926836013793945,0.2080078125,0.36328125,-0.853759765625,-1.007080078125,2.3193359375,0.274658203125,30.146514892578125,75.63072967529297,-123.14321899414062,21.302616119384766,994.8068237304688,38.184669494628906,0.0014024389982223511,0.0012195122241973877,11.999859999999403,1
1770538724,2026-02-08T00:18:44,3.2712321281433105,21.11130714416504,21.575763702392578,19.98566246032715,21.93865966796875,0.20751953125,0.36279296875,-0.856689453125,-1.556396484375,2.197265625,0.18310546875,32.08576202392578,75.80702209472656,-122.63365936279297,21.302616119384766,994.7797241210938,38.19633483886719,0.0014024389982223511,0.0012195122241973877,11.999849999994039,1
1770538724,2026-02-08T00:18:44,3.2312774658203125,21.115264892578125,21.583660125732422,19.981678009033203,21.964275360107422,0.206787109375,0.362548828125,-0.852783203125,-1.03759765625,1.953125,0.091552734375,30.851696014404297,76.6884994506836,-122.46380615234375,21.302616119384766,994.7255859375,38.178836822509766,0.0014024389982223511,0.0007317073345184327,11.999859999999403,1
1770538725,2026-02-08T00:18:45,3.3111541271209717,21.115264892578125,21.573789596557617,20.01155662536621,21.940629959106445,0.20654296875,0.363525390625,-0.8544921875,-1.251220703125,2.410888671875,-0.213623046875,31.027992248535156,76.51220703125,-121.95425415039062,21.302616119384766,994.7797241210938,38.184669494628906,0.0014024389982223511,0.0012195122241973877,11.999870000004769,1
1770538725,2026-02-08T00:18:45,3.2437667846679688,21.1132869720459,21.571815490722656,19.979686737060547,21.950483322143555,0.206298828125,0.357666015625,-0.85791015625,-1.312255859375,2.197265625,0.0,30.49910545349121,76.6884994506836,-122.80351257324219,21.312774658203125,994.8231811523438,38.161285400390625,0.0014024389982223511,0.0012195122241973877,11.999870000004769,1
1770538725,2026-02-08T00:18:45,3.238771438598633,21.109329223632812,21.571815490722656,19.981678009033203,21.918954849243164,0.20751953125,0.362548828125,-0.852294921875,-1.129150390625,2.25830078125,-0.091552734375,29.44133186340332,75.98332214355469,-122.80351257324219,21.307695388793945,994.7608032226562,38.167144775390625,0.0013048779964447022,0.0007317073345184327,11.999870000004769,1
1770538725,2026-02-08T00:18:45,3.3061656951904297,21.103391647338867,21.569841384887695,19.981678009033203,21.918954849243164,0.208984375,0.361572265625,-0.853271484375,-1.28173828125,2.3193359375,0.030517578125,31.733173370361328,75.10184478759766,-122.63365936279297,21.297534942626953,994.7445068359375,38.18470001220703,0.0014024389982223511,0.0012195122241973877,11.999870000004769,1
1770538725,2026-02-08T00:18:45,3.2986819744110107,21.10141372680664,21.567867279052734,19.981678009033203,21.92486572265625,0.2060546875,0.36083984375,-0.8583984375,-1.312255859375,2.288818359375,0.030517578125,31.909467697143555,74.92554473876953,-123.14321899414062,21.307695388793945,994.7879028320312,38.167144775390625,0.0014024389982223511,0.0007317073345184327,11.999859999999403,1
1770538725,2026-02-08T00:18:45,3.321129322052002,21.103391647338867,21.563919067382812,19.977693557739258,21.926836013793945,0.205810546875,0.365234375,-0.857666015625,-1.373291015625,2.25830078125,0.18310546875,31.027992248535156,77.2173843383789,-122.29395294189453,21.302616119384766,994.7797241210938,38.167171478271484,0.0014024389982223511,0.0007317073345184327,11.999840000003577,1
1770538725,2026-02-08T00:18:45,3.308659791946411,21.105371475219727,21.565893173217773,19.973709106445312,21.93077850341797,0.206298828125,0.364501953125,-0.85546875,-1.40380859375,2.38037109375,-0.030517578125,30.675399780273438,76.15961456298828,-123.31307220458984,21.297534942626953,994.7445068359375,38.17303466796875,0.0013048779964447022,0.0012195122241973877,11.999870000004769,1
1770538725,2026-02-08T00:18:45,3.2787201404571533,21.1132869720459,21.5797119140625,19.973709106445312,21.970186233520508,0.2060546875,0.36474609375,-0.85302734375,-1.15966796875,2.471923828125,0.1220703125,30.49910545349121,75.98332214355469,-122.80351257324219,21.297534942626953,994.7716064453125,38.16136932373047,0.0014024389982223511,0.0012195122241973877,11.999880000002682,1
1770538725,2026-02-08T00:18:45,3.323622941970825,21.10141372680664,21.567867279052734,19.973709106445312,21.92092514038086,0.2080078125,0.36474609375,-0.857421875,-1.220703125,2.25830078125,0.213623046875,31.733173370361328,76.51220703125,-122.9733657836914,21.312774658203125,994.7689819335938,38.172950744628906,0.001597561001777649,0.0007317073345184327,11.999849999994039,1
1770538725,2026-02-08T00:18:45,3.3261163234710693,21.109329223632812,21.565893173217773,19.979686737060547,21.940629959106445,0.21044921875,0.36328125,-0.8564453125,-1.220703125,1.983642578125,0.06103515625,31.380582809448242,75.45443725585938,-122.29395294189453,21.312774658203125,994.7689819335938,38.155452728271484,0.0013048779964447022,0.0007317073345184327,11.999870000004769,1
1770538726,2026-02-08T00:18:46,3.296187162399292,21.115264892578125,21.56194496154785,19.981678009033203,21.932748794555664,0.207275390625,0.364013671875,-0.86181640625,-1.03759765625,2.227783203125,0.213623046875,30.675399780273438,75.80702209472656,-122.63365936279297,21.292455673217773,994.763427734375,38.17306137084961,0.0015,0.0012195122241973877,11.999870000004769,1
1770538726,2026-02-08T00:18:46,3.276224136352539,21.12911605834961,21.563919067382812,19.9757022857666,21.94851303100586,0.21240234375,0.36181640625,-0.8544921875,-1.251220703125,2.25830078125,0.244140625,31.733173370361328,75.45443725585938,-122.29395294189453,21.297534942626953,994.7716064453125,38.16720199584961,0.0014024389982223511,0.00048780488967895507,11.999849999994039,1
1770538726,2026-02-08T00:18:46,3.2862067222595215,21.105371475219727,21.565893173217773,19.979686737060547,21.95639419555664,0.2099609375,0.364013671875,-0.851318359375,-1.40380859375,2.38037109375,-0.274658203125,31.380582809448242,76.86479949951172,-122.9733657836914,21.307695388793945,994.7879028320312,38.161312103271484,0.0011951220035552978,0.00048780488967895507,11.999849999994039,1
1770538726,2026-02-08T00:18:46,3.253756046295166,21.107349395751953,21.55997085571289,19.969724655151367,21.922895431518555,0.2080078125,0.364501953125,-0.85302734375,-1.52587890625,2.410888671875,-0.18310546875,31.55687713623047,75.63072967529297,-123.8226318359375,21.297534942626953,994.7445068359375,38.15553665161133,0.0013048779964447022,0.00048780488967895507,11.999870000004769,1
1770538726,2026-02-08T00:18:46,3.253756046295166,21.109329223632812,21.565893173217773,19.971717834472656,21.94260025024414,0.205322265625,0.357421875,-0.855224609375,-1.251220703125,2.3193359375,-0.1220703125,31.380582809448242,75.45443725585938,-123.31307220458984,21.302616119384766,994.7797241210938,38.167171478271484,0.0015,0.0007317073345184327,11.999870000004769,1
1770538726,2026-02-08T00:18:46,3.2562530040740967,21.103391647338867,21.563919067382812,19.979686737060547,21.926836013793945,0.20849609375,0.360107421875,-0.8525390625,-1.46484375,2.25830078125,0.1220703125,31.733173370361328,76.15961456298828,-122.9733657836914,21.302616119384766,994.7797241210938,38.161338806152344,0.001597561001777649,0.0007317073345184327,11.999859999999403,1
1770538726,2026-02-08T00:18:46,3.226280927658081,21.09943389892578,21.56194496154785,19.971717834472656,21.94457244873047,0.2060546875,0.358154296875,-0.8544921875,-1.068115234375,2.197265625,0.18310546875,30.851696014404297,75.98332214355469,-122.80351257324219,21.302616119384766,994.752685546875,38.161338806152344,0.0013048779964447022,0.00048780488967895507,11.999880000002682,1
1770538726,2026-02-08T00:18:46,3.2087886333465576,21.095476150512695,21.55799674987793,19.96773338317871,21.922895431518555,0.2080078125,0.36181640625,-0.849365234375,-1.068115234375,2.410888671875,0.06103515625,31.909467697143555,74.92554473876953,-121.7844009399414,21.302616119384766,994.7255859375,38.161338806152344,0.0013048779964447022,0.0007317073345184327,11.999870000004769,1
1770538726,2026-02-08T00:18:46,3.218784809112549,21.097455978393555,21.554048538208008,19.969724655151367,21.92092514038086,0.209716796875,0.3623046875,-0.85595703125,-1.3427734375,2.13623046875,0.091552734375,30.675399780273438,74.74925231933594,-122.29395294189453,21.297534942626953,994.7716064453125,38.16136932373047,0.0014024389982223511,0.00048780488967895507,11.999859999999403,1
1770538726,2026-02-08T00:18:46,3.2462644577026367,21.11130714416504,21.55799674987793,19.95976448059082,21.940629959106445,0.20751953125,0.3642578125,-0.854736328125,-1.52587890625,2.349853515625,-0.152587890625,31.204286575317383,76.33590698242188,-122.80351257324219,21.302616119384766,994.7797241210938,38.1555061340332,0.0014024389982223511,0.0007317073345184327,11.999849999994039,1
1770538727,2026-02-08T00:18:47,3.2462644577026367,21.1132869720459,21.563919067382812,19.977693557739258,21.95639419555664,0.206298828125,0.361328125,-0.852783203125,-1.312255859375,2.349853515625,0.030517578125,29.79392433166504,75.27813720703125,-122.46380615234375,21.307695388793945,994.7337036132812,38.155479431152344,0.0014024389982223511,0.00048780488967895507,11.999870000004769,1
1770538727,2026-02-08T00:18:47,3.253756046295166,21.105371475219727,21.565893173217773,19.971717834472656,21.88939094543457,0.207763671875,0.364501953125,-0.855224609375,-1.495361328125,2.349853515625,0.244140625,31.909467697143555,75.98332214355469,-123.8226318359375,21.302616119384766,994.8068237304688,38.167171478271484,0.0013048779964447022,0.0012195122241973877,11.999859999999403,1
1770538727,2026-02-08T00:18:47,3.2587499618530273,21.11130714416504,21.565893173217773,19.979686737060547,21.92092514038086,0.2041015625,0.363037109375,-0.85595703125,-1.40380859375,2.349853515625,0.274658203125,31.380582809448242,76.86479949951172,-121.61454772949219,21.307695388793945,994.7879028320312,38.14381408691406,0.0013048779964447022,0.0007317073345184327,11.999859999999403,1
1770538727,2026-02-08T00:18:47,3.2712321281433105,21.105371475219727,21.565893173217773,19.971717834472656,21.95245361328125,0.209716796875,0.363525390625,-0.8564453125,-1.0986328125,2.0751953125,0.18310546875,31.204286575317383,75.27813720703125,-123.48292541503906,21.297534942626953,994.8257446289062,38.17886734008789,0.0015,0.0007317073345184327,11.999870000004769,1
1770538727,2026-02-08T00:18:47,3.2637431621551514,21.1132869720459,21.569841384887695,19.969724655151367,21.93471908569336,0.208251953125,0.363037109375,-0.858642578125,-1.3427734375,2.3193359375,0.030517578125,31.909467697143555,76.33590698242188,-124.84174346923828,21.302616119384766,994.7255859375,38.178836822509766,0.0014024389982223511,0.0012195122241973877,11.999870000004769,1
1770538727,2026-02-08T00:18:47,3.2911972999572754,21.107349395751953,21.563919067382812,19.973709106445312,21.940629959106445,0.205810546875,0.363037109375,-0.85791015625,-1.46484375,2.288818359375,0.244140625,32.08576202392578,75.10184478759766,-122.9733657836914,21.302616119384766,994.8339233398438,38.161338806152344,0.0015,0.0012195122241973877,11.999880000002682,1
1770538727,2026-02-08T00:18:47,3.2986819744110107,21.107349395751953,21.569841384887695,19.973709106445312,21.985946655273438,0.208740234375,0.363037109375,-0.86328125,-1.373291015625,2.166748046875,-0.030517578125,31.733173370361328,76.51220703125,-122.29395294189453,21.307695388793945,994.7337036132812,38.18464279174805,0.0014024389982223511,0.0007317073345184327,11.999880000002682,1
1770538727,2026-02-08T00:18:47,3.261246681213379,21.107349395751953,21.565893173217773,19.971717834472656,21.94851303100586,0.20849609375,0.3603515625,-0.8525390625,-1.28173828125,2.50244140625,-0.274658203125,31.204286575317383,75.63072967529297,-121.44469451904297,21.312774658203125,994.7418823242188,38.161285400390625,0.0015,0.0007317073345184327,11.999859999999403,1
1770538727,2026-02-08T00:18:47,3.2637431621551514,21.10141372680664,21.55997085571289,19.973709106445312,21.916982650756836,0.20654296875,0.3623046875,-0.854736328125,-1.251220703125,2.0751953125,0.152587890625,30.32280921936035,75.10184478759766,-122.29395294189453,21.307695388793945,994.7337036132812,38.172977447509766,0.0015,0.0007317073345184327,11.999840000003577,1
1770538727,2026-02-08T00:18:47,3.2462644577026367,21.105371475219727,21.55602264404297,19.961755752563477,21.950483322143555,0.206298828125,0.35693359375,-0.85791015625,-1.251220703125,2.105712890625,-0.06103515625,32.4383544921875,76.15961456298828,-123.31307220458984,21.297534942626953,994.7716064453125,38.16720199584961,0.0014024389982223511,0.00048780488967895507,11.999870000004769,1
1770538728,2026-02-08T00:18:48,3.2312774658203125,21.095476150512695,21.55799674987793,19.977693557739258,21.932748794555664,0.208740234375,0.363037109375,-0.857177734375,-1.15966796875,2.0751953125,0.06103515625,31.733173370361328,75.80702209472656,-121.95425415039062,21.302616119384766,994.752685546875,38.167171478271484,0.0013048779964447022,0.0007317073345184327,11.999870000004769,1
1770538728,2026-02-08T00:18:48,3.226280927658081,21.105371475219727,21.55602264404297,19.963748931884766,21.94260025024414,0.20947265625,0.36572265625,-0.855712890625,-1.28173828125,2.13623046875,0.152587890625,31.380582809448242,75.10184478759766,-122.9733657836914,21.307695388793945,994.7337036132812,38.161312103271484,0.0015,0.0007317073345184327,11.999870000004769,1
1770538728,2026-02-08T00:18:48,3.238771438598633,21.105371475219727,21.55997085571289,19.973709106445312,21.92092514038086,0.2080078125,0.364013671875,-0.85791015625,-1.190185546875,2.471923828125,-0.030517578125,31.204286575317383,75.27813720703125,-124.16233825683594,21.307695388793945,994.8150024414062,38.172977447509766,0.0011951220035552978,0.0007317073345184327,11.999870000004769,1
1770538728,2026-02-08T00:18:48,3.2237823009490967,21.115264892578125,21.55997085571289,19.969724655151367,21.946542739868164,0.20556640625,0.362060546875,-0.8544921875,-1.15966796875,2.349853515625,0.152587890625,30.32280921936035,75.80702209472656,-122.29395294189453,21.317855834960938,994.7771606445312,38.15542221069336,0.0013048779964447022,0.0012195122241973877,11.999870000004769,1
1770538728,2026-02-08T00:18:48,3.2162859439849854,21.103391647338867,21.571815490722656,19.977693557739258,21.916982650756836,0.20849609375,0.363525390625,-0.86083984375,-1.3427734375,2.197265625,0.0,31.204286575317383,74.57295989990234,-122.80351257324219,21.292455673217773,994.817626953125,38.16139602661133,0.0013048779964447022,0.0012195122241973877,11.999859999999403,1
1770538728,2026-02-08T00:18:48,3.2787201404571533,21.109329223632812,21.565893173217773,19.9757022857666,21.946542739868164,0.205078125,0.36279296875,-0.853759765625,-1.0986328125,2.01416015625,0.1220703125,31.909467697143555,74.92554473876953,-122.80351257324219,21.307695388793945,994.8421020507812,38.172977447509766,0.0014024389982223511,0.0012195122241973877,11.999880000002682,1
1770538728,2026-02-08T00:18:48,3.238771438598633,21.109329223632812,21.56194496154785,19.9757022857666,21.95639419555664,0.207275390625,0.36572265625,-0.858642578125,-1.28173828125,2.288818359375,-0.091552734375,30.32280921936035,75.10184478759766,-121.61454772949219,21.302616119384766,994.7255859375,38.167171478271484,0.001597561001777649,0.0012195122241973877,11.999859999999403,1
1770538728,2026-02-08T00:18:48,3.276224136352539,21.1132869720459,21.565893173217773,19.9757022857666,21.95639419555664,0.208984375,0.363037109375,-0.855712890625,-1.190185546875,2.166748046875,-0.091552734375,30.49910545349121,75.27813720703125,-123.14321899414062,21.302616119384766,994.7797241210938,38.167171478271484,0.0014024389982223511,0.0007317073345184327,11.999870000004769,1
1770538728,2026-02-08T00:18:48,3.266239643096924,21.109329223632812,21.567867279052734,19.9757022857666,21.91107177734375,0.203125,0.36572265625,-0.857177734375,-1.129150390625,2.227783203125,0.06103515625,32.26205825805664,74.92554473876953,-123.48292541503906,21.312774658203125,994.7418823242188,38.18461608886719,0.0013048779964447022,0.0007317073345184327,11.999840000003577,1
1770538728,2026-02-08T00:18:48,3.2337756156921387,21.11130714416504,21.563919067382812,19.971717834472656,21.93471908569336,0.20556640625,0.361083984375,-0.862548828125,-1.220703125,2.044677734375,0.274658203125,32.08576202392578,75.80702209472656,-123.65277862548828,21.312774658203125,994.7418823242188,38.155452728271484,0.0013048779964447022,0.0012195122241973877,11.999859999999403,1
1770538729,2026-02-08T00:18:49,3.2237823009490967,21.09943389892578,21.563919067382812,19.979686737060547,21.936689376831055,0.204833984375,0.362548828125,-0.85888671875,-1.312255859375,2.166748046875,0.30517578125,31.909467697143555,75.63072967529297,-122.46380615234375,21.297534942626953,994.7716064453125,38.16720199584961,0.0015,0.0007317073345184327,11.999880000002682,1
1770538729,2026-02-08T00:18:49,3.2162859439849854,21.10141372680664,21.56194496154785,19.979686737060547,21.93865966796875,0.21240234375,0.361328125,-0.854736328125,-1.220703125,2.13623046875,0.18310546875,31.733173370361328,74.74925231933594,-122.9733657836914,21.297534942626953,994.7716064453125,38.14387130737305,0.0015,0.0007317073345184327,11.999859999999403,1
1770538729,2026-02-08T00:18:49,3.1912899017333984,21.103391647338867,21.55799674987793,19.96773338317871,21.936689376831055,0.205810546875,0.3603515625,-0.8544921875,-1.495361328125,2.349853515625,-0.06103515625,30.32280921936035,75.80702209472656,-122.29395294189453,21.307695388793945,994.7066040039062,38.155479431152344,0.0015,0.0007317073345184327,11.999870000004769,1
1770538729,2026-02-08T00:18:49,3.1687824726104736,21.10141372680664,21.55602264404297,19.963748931884766,21.91107177734375,0.2099609375,0.362548828125,-0.858642578125,-1.40380859375,2.25830078125,0.274658203125,31.55687713623047,76.6884994506836,-123.48292541503906,21.312774658203125,994.7689819335938,38.149620056152344,0.0013048779964447022,0.0007317073345184327,11.999859999999403,1
1770538729,2026-02-08T00:18:49,3.1737849712371826,21.109329223632812,21.563919067382812,19.971717834472656,21.918954849243164,0.205322265625,0.3623046875,-0.849365234375,-1.190185546875,2.105712890625,0.335693359375,31.909467697143555,77.04109191894531,-123.48292541503906,21.307695388793945,994.7879028320312,38.155479431152344,0.0013048779964447022,0.00048780488967895507,11.999859999999403,1
1770538729,2026-02-08T00:18:49,3.2237823009490967,21.105371475219727,21.565893173217773,19.973709106445312,21.958364486694336,0.2041015625,0.36181640625,-0.853759765625,-1.312255859375,2.044677734375,0.0,30.32280921936035,75.80702209472656,-123.65277862548828,21.307695388793945,994.7337036132812,38.155479431152344,0.0013048779964447022,0.0007317073345184327,11.999859999999403,1
1770538729,2026-02-08T00:18:49,3.1887896060943604,21.107349395751953,21.563919067382812,19.979686737060547,21.9741268157959,0.20458984375,0.362060546875,-0.849365234375,-1.15966796875,2.166748046875,0.1220703125,31.027992248535156,76.15961456298828,-123.31307220458984,21.307695388793945,994.7608032226562,38.13798141479492,0.0015,0.0012195122241973877,11.999859999999403,1
1770538729,2026-02-08T00:18:49,3.276224136352539,21.1132869720459,21.567867279052734,19.971717834472656,21.922895431518555,0.20556640625,0.359375,-0.85888671875,-1.52587890625,2.288818359375,-0.06103515625,32.08576202392578,75.80702209472656,-123.31307220458984,21.297534942626953,994.7174072265625,38.16136932373047,0.001597561001777649,0.0012195122241973877,11.999870000004769,1
1770538729,2026-02-08T00:18:49,3.213787078857422,21.109329223632812,21.567867279052734,19.9757022857666,21.94851303100586,0.20849609375,0.36328125,-0.84814453125,-1.129150390625,2.13623046875,0.091552734375,31.55687713623047,75.63072967529297,-122.12409973144531,21.312774658203125,994.7418823242188,38.161285400390625,0.0014024389982223511,0.0012195122241973877,11.999859999999403,1
1770538729,2026-02-08T00:18:49,3.2212836742401123,21.11130714416504,21.569841384887695,19.9757022857666,21.916982650756836,0.208984375,0.365478515625,-0.85888671875,-1.373291015625,2.38037109375,0.152587890625,31.55687713623047,77.39368438720703,-121.7844009399414,21.317855834960938,994.8042602539062,38.15542221069336,0.0015,0.0012195122241973877,11.999849999994039,1
1770538730,2026-02-08T00:18:50,3.2237823009490967,21.109329223632812,21.573789596557617,19.983671188354492,21.893333435058594,0.201416015625,0.36181640625,-0.85400390625,-1.28173828125,2.38037109375,0.213623046875,32.61465072631836,76.33590698242188,-122.46380615234375,21.307695388793945,994.7879028320312,38.155479431152344,0.0015,0.0012195122241973877,11.999859999999403,1
1770538730,2026-02-08T00:18:50,3.266239643096924,21.117244720458984,21.567867279052734,19.973709106445312,21.95245361328125,0.204833984375,0.363037109375,-0.861083984375,-1.15966796875,2.349853515625,0.030517578125,31.909467697143555,75.27813720703125,-123.14321899414062,21.312774658203125,994.7418823242188,38.161285400390625,0.0014024389982223511,0.0007317073345184327,11.999849999994039,1
1770538730,2026-02-08T00:18:50,3.2237823009490967,21.109329223632812,21.567867279052734,19.9757022857666,21.928808212280273,0.20751953125,0.36376953125,-0.85546875,-1.220703125,2.166748046875,0.18310546875,30.675399780273438,75.45443725585938,-121.61454772949219,21.307695388793945,994.7337036132812,38.172977447509766,0.0014024389982223511,0.0012195122241973877,11.999870000004769,1
1770538730,2026-02-08T00:18:50,3.1962902545928955,21.10141372680664,21.56194496154785,19.9757022857666,21.950483322143555,0.20361328125,0.36328125,-0.857666015625,-1.3427734375,1.8310546875,0.274658203125,31.380582809448242,75.45443725585938,-123.31307220458984,21.307695388793945,994.7608032226562,38.167144775390625,0.0014024389982223511,0.0012195122241973877,11.999870000004769,1
1770538730,2026-02-08T00:18:50,3.186289072036743,21.09943389892578,21.56194496154785,19.981678009033203,21.928808212280273,0.208984375,0.36083984375,-0.85595703125,-1.251220703125,2.13623046875,0.06103515625,31.733173370361328,75.45443725585938,-123.31307220458984,21.302616119384766,994.752685546875,38.173004150390625,0.0014024389982223511,0.0012195122241973877,11.999859999999403,1
1770538730,2026-02-08T00:18:50,3.1887896060943604,21.107349395751953,21.56194496154785,19.971717834472656,21.94851303100586,0.205810546875,0.361572265625,-0.853271484375,-1.129150390625,2.166748046875,-0.030517578125,31.027992248535156,76.51220703125,-121.95425415039062,21.312774658203125,994.7418823242188,38.167118072509766,0.0014024389982223511,0.0012195122241973877,11.999859999999403,1
1770538730,2026-02-08T00:18:50,3.158775568008423,21.10141372680664,21.565893173217773,19.9757022857666,21.950483322143555,0.20703125,0.360107421875,-0.8515625,-1.434326171875,2.3193359375,-0.152587890625,31.733173370361328,75.10184478759766,-123.31307220458984,21.312774658203125,994.7418823242188,38.172950744628906,0.0011951220035552978,0.0007317073345184327,11.999849999994039,1
1770538730,2026-02-08T00:18:50,3.1812877655029297,21.1132869720459,21.569841384887695,19.965740203857422,21.968215942382812,0.20703125,0.36181640625,-0.857421875,-1.495361328125,2.3193359375,0.030517578125,32.08576202392578,75.45443725585938,-123.31307220458984,21.317855834960938,994.7500610351562,38.17292404174805,0.0014024389982223511,0.0012195122241973877,11.999859999999403,1
1770538730,2026-02-08T00:18:50,3.1612775325775146,21.11922264099121,21.57773780822754,19.973709106445312,21.96033477783203,0.211669921875,0.3603515625,-0.858642578125,-1.373291015625,2.0751953125,0.152587890625,32.61465072631836,75.63072967529297,-123.14321899414062,21.307695388793945,994.7879028320312,38.167144775390625,0.0013048779964447022,0.0012195122241973877,11.999859999999403,1
1770538730,2026-02-08T00:18:50,3.1912899017333984,21.115264892578125,21.575763702392578,19.98566246032715,21.94851303100586,0.205810546875,0.366943359375,-0.860595703125,-1.373291015625,2.13623046875,0.1220703125,32.96723937988281,75.98332214355469,-123.48292541503906,21.302616119384766,994.752685546875,38.173004150390625,0.0015,0.0012195122241973877,11.999870000004769,1
1770538731,2026-02-08T00:18:51,3.213787078857422,21.11130714416504,21.589582443237305,19.989646911621094,21.950483322143555,0.208984375,0.361328125,-0.856201171875,-1.03759765625,2.3193359375,0.0,32.08576202392578,77.56997680664062,-122.63365936279297,21.302616119384766,994.752685546875,38.173004150390625,0.0014024389982223511,0.0012195122241973877,11.999870000004769,1
1770538731,2026-02-08T00:18:51,3.213787078857422,21.117244720458984,21.57773780822754,19.981678009033203,21.9741268157959,0.2041015625,0.365966796875,-0.859375,-1.251220703125,2.044677734375,-0.030517578125,31.909467697143555,75.27813720703125,-123.14321899414062,21.302616119384766,994.7255859375,38.173004150390625,0.0013048779964447022,0.0012195122241973877,11.999859999999403,1
1770538731,2026-02-08T00:18:51,3.206289052963257,21.107349395751953,21.575763702392578,19.983671188354492,21.93865966796875,0.20654296875,0.36279296875,-0.85302734375,-1.28173828125,2.349853515625,0.06103515625,30.32280921936035,76.15961456298828,-122.29395294189453,21.312774658203125,994.7689819335938,38.172950744628906,0.0014024389982223511,0.0012195122241973877,11.999859999999403,1
1770538731,2026-02-08T00:18:51,3.226280927658081,21.12120246887207,21.5797119140625,19.983671188354492,21.93077850341797,0.206787109375,0.361083984375,-0.85791015625,-1.03759765625,1.739501953125,-0.152587890625,33.67242431640625,75.27813720703125,-122.80351257324219,21.307695388793945,994.7337036132812,38.172977447509766,0.0014024389982223511,0.0012195122241973877,11.999859999999403,1
1770538731,2026-02-08T00:18:51,3.2911972999572754,21.11130714416504,21.5797119140625,19.977693557739258,21.92092514038086,0.211181640625,0.359619140625,-0.858154296875,-0.91552734375,2.105712890625,0.18310546875,32.08576202392578,76.15961456298828,-123.99248504638672,21.302616119384766,994.7797241210938,38.19050216674805,0.0013048779964447022,0.0012195122241973877,11.999870000004769,1
1770538731,2026-02-08T00:18:51,3.226280927658081,21.115264892578125,21.571815490722656,19.977693557739258,21.92486572265625,0.207275390625,0.363525390625,-0.857177734375,-1.312255859375,2.227783203125,0.06103515625,31.733173370361328,75.10184478759766,-122.29395294189453,21.312774658203125,994.7418823242188,38.18461608886719,0.0014024389982223511,0.0012195122241973877,11.999859999999403,1
1770538731,2026-02-08T00:18:51,3.218784809112549,21.103391647338867,21.571815490722656,19.983671188354492,21.93865966796875,0.2109375,0.363525390625,-0.858154296875,-1.40380859375,2.227783203125,0.152587890625,31.55687713623047,76.33590698242188,-121.10498809814453,21.307695388793945,994.7608032226562,38.178810119628906,0.0013048779964447022,0.0012195122241973877,11.999859999999403,1
1770538731,2026-02-08T00:18:51,3.203789472579956,21.105371475219727,21.573789596557617,19.977693557739258,21.928808212280273,0.20751953125,0.3603515625,-0.853515625,-1.373291015625,2.01416015625,0.274658203125,32.08576202392578,75.45443725585938,-122.9733657836914,21.297534942626953,994.7716064453125,38.16136932373047,0.0013048779964447022,0.0012195122241973877,11.999849999994039,1
1770538731,2026-02-08T00:18:51,3.2312774658203125,21.09943389892578,21.565893173217773,19.977693557739258,21.913042068481445,0.201171875,0.362060546875,-0.857666015625,-1.28173828125,2.166748046875,0.18310546875,31.027992248535156,75.80702209472656,-122.9733657836914,21.307695388793945,994.7879028320312,38.18464279174805,0.0014024389982223511,0.0012195122241973877,11.999870000004769,1
1770538731,2026-02-08T00:18:51,3.2287793159484863,21.11130714416504,21.563919067382812,19.981678009033203,21.95245361328125,0.206787109375,0.35791015625,-0.8623046875,-1.251220703125,2.105712890625,0.396728515625,31.204286575317383,76.6884994506836,-122.46380615234375,21.317855834960938,994.7771606445312,38.17875671386719,0.0015,0.0012195122241973877,11.999870000004769,1
1770538732,2026-02-08T00:18:52,3.2287793159484863,21.11130714416504,21.571815490722656,19.981678009033203,21.94457244873047,0.205810546875,0.365234375,-0.85693359375,-1.28173828125,2.38037109375,0.0,31.204286575317383,75.63072967529297,-122.46380615234375,21.302616119384766,994.752685546875,38.178836822509766,0.0013048779964447022,0.0017073171138763427,11.999859999999403,1
1770538732,2026-02-08T00:18:52,3.238771438598633,21.1132869720459,21.5797119140625,19.9757022857666,21.922895431518555,0.20751953125,0.364501953125,-0.86083984375,-1.3427734375,2.13623046875,0.06103515625,32.08576202392578,75.45443725585938,-121.61454772949219,21.312774658203125,994.7689819335938,38.18461608886719,0.0015,0.0012195122241973877,11.999859999999403,1
1770538732,2026-02-08T00:18:52,3.1887896060943604,21.109329223632812,21.575763702392578,19.977693557739258,21.97806739807129,0.206787109375,0.3623046875,-0.84814453125,-1.3427734375,2.01416015625,0.06103515625,31.380582809448242,75.45443725585938,-123.31307220458984,21.317855834960938,994.7500610351562,38.20208740234375,0.0014024389982223511,0.0012195122241973877,11.999859999999403,1
1770538732,2026-02-08T00:18:52,3.176285982131958,21.109329223632812,21.575763702392578,19.977693557739258,21.94260025024414,0.209228515625,0.361328125,-0.85302734375,-1.40380859375,2.105712890625,0.244140625,32.08576202392578,75.80702209472656,-122.9733657836914,21.302616119384766,994.752685546875,38.19633483886719,0.0013048779964447022,0.0012195122241973877,11.999880000002682,1
1770538732,2026-02-08T00:18:52,3.2462644577026367,21.11130714416504,21.575763702392578,19.98566246032715,21.926836013793945,0.207275390625,0.36083984375,-0.857666015625,-1.251220703125,2.197265625,0.274658203125,30.675399780273438,76.51220703125,-122.63365936279297,21.302616119384766,994.752685546875,38.178836822509766,0.0015,0.0012195122241973877,11.999849999994039,1
1770538732,2026-02-08T00:18:52,3.1962902545928955,21.115264892578125,21.5797119140625,19.987655639648438,21.950483322143555,0.207763671875,0.361572265625,-0.855712890625,-1.556396484375,1.89208984375,-0.152587890625,30.851696014404297,75.98332214355469,-122.80351257324219,21.312774658203125,994.7418823242188,38.18461608886719,0.0015,0.0012195122241973877,11.999859999999403,1
1770538732,2026-02-08T00:18:52,3.183788537979126,21.11130714416504,21.583660125732422,19.99363136291504,21.96033477783203,0.205078125,0.36376953125,-0.8515625,-1.03759765625,1.861572265625,0.244140625,31.380582809448242,74.74925231933594,-123.31307220458984,21.312774658203125,994.7418823242188,38.17878341674805,0.0013048779964447022,0.0012195122241973877,11.999849999994039,1
1770538732,2026-02-08T00:18:52,3.1812877655029297,21.11922264099121,21.57773780822754,19.979686737060547,21.918954849243164,0.209228515625,0.36474609375,-0.85498046875,-1.068115234375,2.50244140625,0.06103515625,30.851696014404297,75.98332214355469,-123.48292541503906,21.302616119384766,994.698486328125,38.19050216674805,0.0013048779964447022,0.0012195122241973877,11.999870000004769,1
1770538732,2026-02-08T00:18:52,3.2012898921966553,21.09943389892578,21.571815490722656,19.977693557739258,21.976097106933594,0.2060546875,0.364501953125,-0.854736328125,-1.40380859375,2.288818359375,0.091552734375,31.027992248535156,75.80702209472656,-122.29395294189453,21.302616119384766,994.7255859375,38.184669494628906,0.0014024389982223511,0.0012195122241973877,11.999849999994039,1
1770538732,2026-02-08T00:18:52,3.2362735271453857,21.103391647338867,21.55799674987793,19.977693557739258,21.940629959106445,0.20947265625,0.35888671875,-0.857177734375,-1.28173828125,2.166748046875,0.091552734375,32.08576202392578,75.80702209472656,-122.63365936279297,21.302616119384766,994.752685546875,38.173004150390625,0.0014024389982223511,0.0012195122241973877,11.999870000004769,1
1770538733,2026-02-08T00:18:53,3.24126935005188,21.103391647338867,21.55799674987793,19.971717834472656,21.972156524658203,0.2060546875,0.36083984375,-0.85205078125,-1.312255859375,2.227783203125,0.091552734375,32.61465072631836,75.98332214355469,-123.48292541503906,21.307695388793945,994.7879028320312,38.178810119628906,0.0014024389982223511,0.0012195122241973877,11.999840000003577,1
1770538733,2026-02-08T00:18:53,3.213787078857422,21.103391647338867,21.55799674987793,19.963748931884766,21.903186798095703,0.2109375,0.3642578125,-0.859130859375,-1.312255859375,2.105712890625,0.06103515625,30.675399780273438,73.69148254394531,-123.31307220458984,21.307695388793945,994.7608032226562,38.178810119628906,0.0014024389982223511,0.0012195122241973877,11.999870000004769,1
1770538733,2026-02-08T00:18:53,3.2337756156921387,21.105371475219727,21.565893173217773,19.971717834472656,21.95245361328125,0.20703125,0.361328125,-0.854248046875,-1.373291015625,2.349853515625,-0.152587890625,30.851696014404297,75.63072967529297,-122.80351257324219,21.312774658203125,994.8502807617188,38.18461608886719,0.0013048779964447022,0.0012195122241973877,11.999870000004769,1
1770538733,2026-02-08T00:18:53,3.226280927658081,21.11130714416504,21.563919067382812,19.965740203857422,21.90515899658203,0.208740234375,0.36376953125,-0.853759765625,-1.312255859375,2.13623046875,0.1220703125,31.380582809448242,75.10184478759766,-122.63365936279297,21.302616119384766,994.752685546875,38.173004150390625,0.0015,0.0012195122241973877,11.999870000004769,1
1770538733,2026-02-08T00:18:53,3.24126935005188,21.105371475219727,21.569841384887695,19.9757022857666,21.964275360107422,0.203857421875,0.36572265625,-0.858642578125,-1.556396484375,2.197265625,-0.091552734375,30.49910545349121,74.57295989990234,-123.48292541503906,21.302616119384766,994.752685546875,38.173004150390625,0.0014024389982223511,0.0012195122241973877,11.999859999999403,1
1770538733,2026-02-08T00:18:53,3.2437667846679688,21.103391647338867,21.571815490722656,19.977693557739258,21.936689376831055,0.205322265625,0.36181640625,-0.85302734375,-1.434326171875,2.227783203125,0.06103515625,30.675399780273438,76.51220703125,-122.63365936279297,21.302616119384766,994.8068237304688,38.19050216674805,0.0013048779964447022,0.0012195122241973877,11.999859999999403,1
1770538733,2026-02-08T00:18:53,3.206289052963257,21.11130714416504,21.565893173217773,19.9757022857666,21.95639419555664,0.2099609375,0.36474609375,-0.858154296875,-1.28173828125,2.227783203125,0.091552734375,30.851696014404297,75.27813720703125,-122.46380615234375,21.307695388793945,994.7066040039062,38.161312103271484,0.0015,0.0012195122241973877,11.999870000004769,1
1770538733,2026-02-08T00:18:53,3.238771438598633,21.11130714416504,21.565893173217773,19.979686737060547,21.94457244873047,0.20556640625,0.361083984375,-0.8564453125,-1.15966796875,2.288818359375,-0.18310546875,30.32280921936035,76.15961456298828,-122.63365936279297,21.307695388793945,994.7066040039062,38.167144775390625,0.0011951220035552978,0.0012195122241973877,11.999870000004769,1
1770538733,2026-02-08T00:18:53,3.2237823009490967,21.107349395751953,21.573789596557617,19.979686737060547,21.932748794555664,0.208251953125,0.365966796875,-0.856689453125,-1.28173828125,2.105712890625,0.0,31.204286575317383,75.27813720703125,-123.8226318359375,21.312774658203125,994.7418823242188,38.172950744628906,0.0013048779964447022,0.0012195122241973877,11.999859999999403,1
1770538733,2026-02-08T00:18:53,3.268735885620117,21.11130714416504,21.567867279052734,19.981678009033203,21.94260025024414,0.20703125,0.36376953125,-0.853759765625,-1.312255859375,2.44140625,0.0,32.61465072631836,75.63072967529297,-121.44469451904297,21.302616119384766,994.7255859375,38.178836822509766,0.0013048779964447022,0.0012195122241973877,11.999870000004769,1
1770538734,2026-02-08T00:18:54,3.2012898921966553,21.103391647338867,21.565893173217773,19.973709106445312,21.95639419555664,0.2099609375,0.36279296875,-0.857177734375,-1.251220703125,2.25830078125,0.152587890625,31.55687713623047,76.33590698242188,-122.46380615234375,21.312774658203125,994.7147827148438,38.161285400390625,0.0014024389982223511,0.0012195122241973877,11.999859999999403,1
1770538734,2026-02-08T00:18:54,3.2237823009490967,21.097455978393555,21.55997085571289,19.977693557739258,21.928808212280273,0.203857421875,0.365234375,-0.8583984375,-1.28173828125,2.044677734375,0.030517578125,31.733173370361328,74.39665985107422,-121.27484130859375,21.307695388793945,994.7608032226562,38.155479431152344,0.0013048779964447022,0.0012195122241973877,11.999880000002682,1
1770538734,2026-02-08T00:18:54,3.2487616539001465,21.09943389892578,21.55799674987793,19.987655639648438,21.954423904418945,0.21142578125,0.364013671875,-0.8515625,-1.190185546875,2.44140625,0.152587890625,31.733173370361328,75.80702209472656,-122.29395294189453,21.317855834960938,994.7500610351562,38.1612548828125,0.0015,0.0012195122241973877,11.999859999999403,1
1770538734,2026-02-08T00:18:54,3.2337756156921387,21.107349395751953,21.563919067382812,19.96773338317871,21.926836013793945,0.20458984375,0.363525390625,-0.856689453125,-1.190185546875,2.044677734375,0.152587890625,31.204286575317383,74.57295989990234,-122.80351257324219,21.302616119384766,994.7255859375,38.178836822509766,0.0014024389982223511,0.0012195122241973877,11.999859999999403,1
1770538734,2026-02-08T00:18:54,3.2087886333465576,21.105371475219727,21.569841384887695,19.973709106445312,21.909099578857422,0.205810546875,0.364013671875,-0.85595703125,-1.28173828125,2.197265625,0.091552734375,31.55687713623047,74.92554473876953,-122.80351257324219,21.312774658203125,994.8231811523438,38.155452728271484,0.0011951220035552978,0.0012195122241973877,11.999859999999403,1
1770538734,2026-02-08T00:18:54,3.2862067222595215,21.12120246887207,21.567867279052734,19.973709106445312,21.926836013793945,0.204833984375,0.36474609375,-0.85400390625,-1.495361328125,2.13623046875,-0.091552734375,32.4383544921875,76.15961456298828,-123.31307220458984,21.302616119384766,994.698486328125,38.161338806152344,0.0013048779964447022,0.0012195122241973877,11.999870000004769,1
1770538734,2026-02-08T00:18:54,3.2587499618530273,21.109329223632812,21.593528747558594,19.971717834472656,21.932748794555664,0.20361328125,0.358642578125,-0.854248046875,-1.129150390625,2.105712890625,0.1220703125,31.027992248535156,75.45443725585938,-122.63365936279297,21.312774658203125,994.7418823242188,38.161285400390625,0.0014024389982223511,0.0012195122241973877,11.999849999994039,1
1770538734,2026-02-08T00:18:54,3.2462644577026367,21.109329223632812,21.567867279052734,19.9757022857666,21.93471908569336,0.202880859375,0.365478515625,-0.852294921875,-1.28173828125,2.44140625,0.091552734375,30.32280921936035,75.80702209472656,-122.63365936279297,21.312774658203125,994.7689819335938,38.161285400390625,0.0013048779964447022,0.0012195122241973877,11.999880000002682,1
1770538734,2026-02-08T00:18:54,3.186289072036743,21.109329223632812,21.575763702392578,19.979686737060547,21.936689376831055,0.206787109375,0.362548828125,-0.8515625,-1.0986328125,2.3193359375,-0.18310546875,32.4383544921875,76.51220703125,-122.9733657836914,21.312774658203125,994.8231811523438,38.161285400390625,0.0014024389982223511,0.0012195122241973877,11.999870000004769,1
1770538734,2026-02-08T00:18:54,3.2437667846679688,21.107349395751953,21.569841384887695,19.9757022857666,21.94260025024414,0.206787109375,0.36328125,-0.856201171875,-1.556396484375,2.471923828125,0.06103515625,31.204286575317383,74.57295989990234,-124.50204467773438,21.307695388793945,994.7337036132812,38.167144775390625,0.0013048779964447022,0.0012195122241973877,11.999859999999403,1
1770538735,2026-02-08T00:18:55,3.2337756156921387,21.11130714416504,21.56194496154785,19.977693557739258,21.901216506958008,0.2080078125,0.36376953125,-0.8544921875,-1.434326171875,1.922607421875,-0.030517578125,32.61465072631836,75.98332214355469,-123.14321899414062,21.302616119384766,994.7797241210938,38.1555061340332,0.0014024389982223511,0.0012195122241973877,11.999859999999403,1
1770538735,2026-02-08T00:18:55,3.24126935005188,21.109329223632812,21.57773780822754,19.971717834472656,21.885448455810547,0.208984375,0.3603515625,-0.85546875,-1.251220703125,2.25830078125,0.06103515625,32.08576202392578,75.45443725585938,-123.65277862548828,21.307695388793945,994.7337036132812,38.161312103271484,0.0011951220035552978,0.0012195122241973877,11.999859999999403,1
1770538735,2026-02-08T00:18:55,3.253756046295166,21.1132869720459,21.569841384887695,19.979686737060547,21.93865966796875,0.205322265625,0.365478515625,-0.8525390625,-1.220703125,2.25830078125,0.1220703125,31.909467697143555,75.27813720703125,-122.46380615234375,21.312774658203125,994.8231811523438,38.161285400390625,0.0014024389982223511,0.0017073171138763427,11.999859999999403,1
1770538735,2026-02-08T00:18:55,3.1937901973724365,21.10141372680664,21.571815490722656,19.983671188354492,21.91107177734375,0.21142578125,0.36181640625,-0.85693359375,-1.0986328125,2.38037109375,0.244140625,31.55687713623047,73.8677749633789,-122.80351257324219,21.317855834960938,994.8042602539062,38.15542221069336,0.0015,0.0017073171138763427,11.999859999999403,1
1770538735,2026-02-08T00:18:55,3.2162859439849854,21.097455978393555,21.565893173217773,19.979686737060547,21.95245361328125,0.209716796875,0.359375,-0.861328125,-1.312255859375,2.3193359375,0.1220703125,31.204286575317383,74.92554473876953,-123.8226318359375,21.317855834960938,994.7500610351562,38.1612548828125,0.0013048779964447022,0.0012195122241973877,11.999880000002682,1
1770538735,2026-02-08T00:18:55,3.2312774658203125,21.105371475219727,21.55799674987793,19.969724655151367,21.903186798095703,0.208740234375,0.35888671875,-0.85498046875,-1.251220703125,2.105712890625,0.152587890625,31.909467697143555,75.27813720703125,-122.46380615234375,21.307695388793945,994.7608032226562,38.155479431152344,0.0013048779964447022,0.0012195122241973877,11.999870000004769,1
1770538735,2026-02-08T00:18:55,3.206289052963257,21.11130714416504,21.55997085571289,19.96773338317871,21.93471908569336,0.206298828125,0.36376953125,-0.859375,-1.28173828125,2.288818359375,0.091552734375,32.4383544921875,75.80702209472656,-122.29395294189453,21.317855834960938,994.7500610351562,38.167091369628906,0.0013048779964447022,0.0012195122241973877,11.999859999999403,1
1770538735,2026-02-08T00:18:55,3.2587499618530273,21.109329223632812,21.563919067382812,19.973709106445312,21.928808212280273,0.20751953125,0.36181640625,-0.855224609375,-1.220703125,2.044677734375,0.0,31.380582809448242,75.80702209472656,-122.63365936279297,21.312774658203125,994.7960815429688,38.149620056152344,0.0013048779964447022,0.0017073171138763427,11.999859999999403,1
1770538735,2026-02-08T00:18:55,3.24126935005188,21.1132869720459,21.567867279052734,19.979686737060547,21.936689376831055,0.20166015625,0.3623046875,-0.853271484375,-1.373291015625,2.25830078125,-0.091552734375,32.26205825805664,77.39368438720703,-121.7844009399414,21.302616119384766,994.698486328125,38.1555061340332,0.0014024389982223511,0.0012195122241973877,11.999859999999403,1
1770538735,2026-02-08T00:18:55,3.308659791946411,21.109329223632812,21.567867279052734,19.9757022857666,21.91107177734375,0.208984375,0.36376953125,-0.85546875,-0.9765625,2.349853515625,-0.030517578125,30.851696014404297,74.92554473876953,-122.46380615234375,21.312774658203125,994.7960815429688,38.161285400390625,0.0013048779964447022,0.0012195122241973877,11.999870000004769,1
1770538736,2026-02-08T00:18:56,3.3311026096343994,21.105371475219727,21.569841384887695,19.981678009033203,21.985946655273438,0.207275390625,0.364501953125,-0.853759765625,-1.3427734375,2.38037109375,0.1220703125,31.55687713623047,75.98332214355469,-123.14321899414062,21.317855834960938,994.7500610351562,38.14958953857422,0.0013048779964447022,0.0012195122241973877,11.999870000004769,1
1770538736,2026-02-08T00:18:56,3.3385813236236572,21.103391647338867,21.571815490722656,19.979686737060547,21.899246215820312,0.20947265625,0.366455078125,-0.85693359375,-1.220703125,1.983642578125,0.213623046875,30.32280921936035,75.80702209472656,-122.29395294189453,21.312774658203125,994.7960815429688,38.149620056152344,0.0013048779964447022,0.0012195122241973877,11.999859999999403,1
1770538736,2026-02-08T00:18:56,3.253756046295166,21.117244720458984,21.573789596557617,19.96773338317871,21.94457244873047,0.20654296875,0.36376953125,-0.8525390625,-1.434326171875,2.349853515625,0.213623046875,31.55687713623047,75.27813720703125,-124.16233825683594,21.307695388793945,994.7879028320312,38.155479431152344,0.0013048779964447022,0.0012195122241973877,11.999870000004769,1
1770538736,2026-02-08T00:18:56,3.2512588500976562,21.107349395751953,21.569841384887695,19.969724655151367,21.922895431518555,0.209716796875,0.359130859375,-0.856689453125,-0.946044921875,2.227783203125,0.091552734375,32.08576202392578,75.10184478759766,-123.65277862548828,21.307695388793945,994.7337036132812,38.161312103271484,0.0014024389982223511,0.0012195122241973877,11.999880000002682,1
1770538736,2026-02-08T00:18:56,3.2362735271453857,21.107349395751953,21.563919067382812,19.973709106445312,21.958364486694336,0.208740234375,0.360595703125,-0.85302734375,-1.220703125,2.197265625,-0.213623046875,31.733173370361328,76.15961456298828,-122.63365936279297,21.312774658203125,994.7960815429688,38.149620056152344,0.0014024389982223511,0.0012195122241973877,11.999859999999403,1
1770538736,2026-02-08T00:18:56,3.2587499618530273,21.09943389892578,21.571815490722656,19.981678009033203,21.936689376831055,0.206787109375,0.358642578125,-0.8583984375,-1.0986328125,2.197265625,0.06103515625,31.55687713623047,75.98332214355469,-122.46380615234375,21.307695388793945,994.7337036132812,38.14381408691406,0.0011951220035552978,0.0012195122241973877,11.999870000004769,1
1770538736,2026-02-08T00:18:56,3.3011765480041504,21.103391647338867,21.61918830871582,20.003589630126953,21.94457244873047,0.207763671875,0.36474609375,-0.860107421875,-1.220703125,2.349853515625,0.213623046875,30.851696014404297,75.98332214355469,-123.14321899414062,21.307695388793945,994.7608032226562,38.155479431152344,0.0015,0.0017073171138763427,11.999840000003577,1
1770538736,2026-02-08T00:18:56,3.323622941970825,21.10141372680664,21.563919067382812,19.969724655151367,21.936689376831055,0.207275390625,0.362060546875,-0.8564453125,-1.434326171875,2.044677734375,0.091552734375,30.32280921936035,75.10184478759766,-122.63365936279297,21.312774658203125,994.7689819335938,38.149620056152344,0.0011951220035552978,0.0012195122241973877,11.999840000003577,1
1770538736,2026-02-08T00:18:56,3.3286094665527344,21.103391647338867,21.56194496154785,19.96773338317871,21.932748794555664,0.207763671875,0.36279296875,-0.853759765625,-1.0986328125,2.166748046875,-0.091552734375,31.55687713623047,77.39368438720703,-123.8226318359375,21.307695388793945,994.7608032226562,38.14381408691406,0.0014024389982223511,0.0012195122241973877,11.999849999994039,1
1770538736,2026-02-08T00:18:56,3.3011765480041504,21.1132869720459,21.55997085571289,19.963748931884766,21.95639419555664,0.20654296875,0.35791015625,-0.84765625,-1.495361328125,2.227783203125,-0.030517578125,33.14353561401367,76.51220703125,-122.29395294189453,21.307695388793945,994.7337036132812,38.1496467590332,0.0013048779964447022,0.0012195122241973877,11.999859999999403,1
1770538737,2026-02-08T00:18:57,3.3111541271209717,21.1132869720459,21.567867279052734,19.969724655151367,21.95245361328125,0.205810546875,0.361083984375,-0.855712890625,-1.220703125,2.349853515625,0.1220703125,31.733173370361328,75.10184478759766,-121.61454772949219,21.302616119384766,994.8068237304688,38.14384078979492,0.0013048779964447022,0.0012195122241973877,11.999859999999403,1
1770538737,2026-02-08T00:18:57,3.356027126312256,21.1132869720459,21.571815490722656,19.973709106445312,21.93077850341797,0.20654296875,0.36279296875,-0.8564453125,-1.312255859375,2.01416015625,0.213623046875,30.851696014404297,74.57295989990234,-123.48292541503906,21.302616119384766,994.8068237304688,38.14967346191406,0.0014024389982223511,0.0012195122241973877,11.999859999999403,1
1770538737,2026-02-08T00:18:57,3.3385813236236572,21.11130714416504,21.565893173217773,19.969724655151367,21.950483322143555,0.207763671875,0.36181640625,-0.857421875,-1.28173828125,2.410888671875,-0.030517578125,31.204286575317383,74.92554473876953,-121.7844009399414,21.307695388793945,994.7608032226562,38.12631607055664,0.0013048779964447022,0.0012195122241973877,11.999870000004769,1
1770538737,2026-02-08T00:18:57,3.341073989868164,21.11130714416504,21.569841384887695,19.971717834472656,21.92092514038086,0.206298828125,0.362060546875,-0.856201171875,-1.312255859375,2.044677734375,0.06103515625,31.027992248535156,75.45443725585938,-120.25572204589844,21.297534942626953,994.7445068359375,38.132205963134766,0.0011951220035552978,0.0012195122241973877,11.999880000002682,1
1770538737,2026-02-08T00:18:57,3.2887020111083984,21.105371475219727,21.567867279052734,19.971717834472656,21.94457244873047,0.2109375,0.363525390625,-0.85498046875,-1.434326171875,2.3193359375,0.18310546875,31.380582809448242,75.80702209472656,-122.9733657836914,21.312774658203125,994.7960815429688,38.126285552978516,0.0014024389982223511,0.0012195122241973877,11.999849999994039,1
1770538737,2026-02-08T00:18:57,3.313647985458374,21.107349395751953,21.567867279052734,19.973709106445312,21.940629959106445,0.20751953125,0.36572265625,-0.856689453125,-1.312255859375,1.983642578125,0.274658203125,31.733173370361328,76.15961456298828,-123.65277862548828,21.302616119384766,994.8339233398438,38.13800811767578,0.0013048779964447022,0.0012195122241973877,11.999859999999403,1
1770538737,2026-02-08T00:18:57,3.2712321281433105,21.103391647338867,21.567867279052734,19.969724655151367,21.940629959106445,0.20703125,0.35986328125,-0.860595703125,-1.495361328125,2.349853515625,0.1220703125,31.909467697143555,73.51518249511719,-121.44469451904297,21.307695388793945,994.7608032226562,38.13214874267578,0.0015,0.0012195122241973877,11.999859999999403,1
1770538737,2026-02-08T00:18:57,3.2936923503875732,21.103391647338867,21.571815490722656,19.9757022857666,21.950483322143555,0.205078125,0.3623046875,-0.8515625,-1.28173828125,2.3193359375,0.152587890625,30.851696014404297,75.98332214355469,-122.46380615234375,21.312774658203125,994.7689819335938,38.1437873840332,0.0014024389982223511,0.0017073171138763427,11.999849999994039,1
1770538737,2026-02-08T00:18:57,3.3834292888641357,21.105371475219727,21.569841384887695,19.979686737060547,21.96033477783203,0.20703125,0.36572265625,-0.853759765625,-1.373291015625,2.38037109375,-0.213623046875,31.909467697143555,74.92554473876953,-122.12409973144531,21.302616119384766,994.7797241210938,38.14967346191406,0.0015,0.0017073171138763427,11.999870000004769,1
1770538737,2026-02-08T00:18:57,3.5896975994110107,21.103391647338867,21.569841384887695,19.971717834472656,21.958364486694336,0.209228515625,0.36279296875,-0.8603515625,-1.190185546875,2.197265625,0.152587890625,32.08576202392578,74.0440673828125,-122.9733657836914,21.302616119384766,994.752685546875,38.1263427734375,0.0013048779964447022,0.0012195122241973877,11.999859999999403,1
1770538738,2026-02-08T00:18:58,3.4903993606567383,21.109329223632812,21.569841384887695,19.979686737060547,21.95245361328125,0.20703125,0.36328125,-0.857421875,-1.52587890625,2.44140625,0.335693359375,31.909467697143555,74.92554473876953,-122.46380615234375,21.307695388793945,994.7608032226562,38.13214874267578,0.0014024389982223511,0.0017073171138763427,11.999859999999403,1
1770538738,2026-02-08T00:18:58,3.577296257019043,21.11130714416504,21.567867279052734,19.973709106445312,21.932748794555664,0.20654296875,0.3603515625,-0.855712890625,-1.373291015625,2.0751953125,0.213623046875,31.909467697143555,75.27813720703125,-122.12409973144531,21.307695388793945,994.7066040039062,38.11465072631836,0.0011951220035552978,0.0017073171138763427,11.999859999999403,1
